timestamp,acc_x,acc_y,acc_z
2026-03-14 09:15:00.000,0.2306,0.3367,10.2264
2026-03-14 09:15:00.010,0.3549,0.2808,10.1635
2026-03-14 09:15:00.020,0.3799,0.7562,10.5751
2026-03-14 09:15:00.030,0.3448,0.8393,9.846
2026-03-14 09:15:00.040,0.7321,0.7423,10.3757
2026-03-14 09:15:00.050,0.9919,1.1455,9.9704
2026-03-14 09:15:00.060,1.1352,0.9076,9.8131
2026-03-14 09:15:00.070,1.2569,1.2928,9.6707
2026-03-14 09:15:00.080,1.3305,1.1728,9.5728
2026-03-14 09:15:00.090,1.4928,1.032,9.7728
2026-03-14 09:15:00.100,1.5088,0.9991,9.7268
2026-03-14 09:15:00.110,1.5152,0.894,10.3955
2026-03-14 09:15:00.120,1.309,0.5618,9.7928
2026-03-14 09:15:00.130,1.1627,0.3179,9.5884
2026-03-14 09:15:00.140,1.296,0.2695,9.6929
2026-03-14 09:15:00.150,1.2962,0.2144,9.3729
2026-03-14 09:15:00.160,1.0035,-0.0156,9.3423
2026-03-14 09:15:00.170,1.071,0.1313,9.6479
2026-03-14 09:15:00.180,0.9852,-0.0503,9.4764
2026-03-14 09:15:00.190,0.8318,-0.0393,9.8278
2026-03-14 09:15:00.200,0.7177,0.0593,9.7818
2026-03-14 09:15:00.210,0.7949,-0.0717,9.6751
2026-03-14 09:15:00.220,0.9129,0.0451,9.7176
2026-03-14 09:15:00.230,0.4462,-0.1214,9.3333
2026-03-14 09:15:00.240,0.1132,0.2967,9.5999
2026-03-14 09:15:00.250,0.2542,0.3913,9.6191
2026-03-14 09:15:00.260,0.196,0.0372,9.8459
2026-03-14 09:15:00.270,0.1116,0.1802,9.9268
2026-03-14 09:15:00.280,-0.3334,0.6804,9.7859
2026-03-14 09:15:00.290,-0.5096,0.0304,10.3074
2026-03-14 09:15:00.300,-0.3128,0.3321,10.0335
2026-03-14 09:15:00.310,-0.3064,0.4361,9.8349
2026-03-14 09:15:00.320,-0.6572,0.0986,10.1452
2026-03-14 09:15:00.330,-1.1705,-0.0034,9.7236
2026-03-14 09:15:00.340,-0.9008,-0.2496,10.1654
2026-03-14 09:15:00.350,-1.171,-0.1416,9.9167
2026-03-14 09:15:00.360,-1.3236,-0.3128,9.7282
2026-03-14 09:15:00.370,-1.355,-0.6997,10.2844
2026-03-14 09:15:00.380,-1.4262,-0.6552,9.9834
2026-03-14 09:15:00.390,-1.1947,-0.916,10.1476
2026-03-14 09:15:00.400,-1.4049,-0.9067,10.1166
2026-03-14 09:15:00.410,-1.3752,-1.3138,9.5114
2026-03-14 09:15:00.420,-1.6636,-1.0775,9.6084
2026-03-14 09:15:00.430,-1.451,-1.2316,9.3257
2026-03-14 09:15:00.440,-1.3376,-1.2051,9.174
2026-03-14 09:15:00.450,-1.4011,-1.1976,9.5695
2026-03-14 09:15:00.460,-1.14,-1.142,9.5753
2026-03-14 09:15:00.470,,-0.7687,9.6502
2026-03-14 09:15:00.480,,-0.8352,10.305
2026-03-14 09:15:00.490,-0.6776,-0.5599,9.7866
2026-03-14 09:15:00.500,-0.431,-0.4061,10.0973
2026-03-14 09:15:00.510,0.0127,0.0573,9.7352
2026-03-14 09:15:00.520,-0.1324,0.2545,9.1138
2026-03-14 09:15:00.530,0.0052,0.1814,9.7282
2026-03-14 09:15:00.540,0.3128,0.4715,9.8098
2026-03-14 09:15:00.550,0.3434,0.6245,9.8886
2026-03-14 09:15:00.560,0.5083,0.6979,10.3041
2026-03-14 09:15:00.570,1.1061,1.098,10.387
2026-03-14 09:15:00.580,1.0992,1.0148,10.3852
2026-03-14 09:15:00.590,1.2967,0.964,10.0561
2026-03-14 09:15:00.600,1.149,0.9242,9.9683
2026-03-14 09:15:00.610,1.3941,1.0115,10.0404
2026-03-14 09:15:00.620,1.2483,1.3206,9.6344
2026-03-14 09:15:00.630,1.5603,0.6481,9.6758
2026-03-14 09:15:00.640,1.1818,0.8078,9.9271
2026-03-14 09:15:00.650,1.422,0.634,10.0574
2026-03-14 09:15:00.660,1.33,0.2281,10.4612
2026-03-14 09:15:00.670,1.1968,0.435,10.0405
2026-03-14 09:15:00.680,1.3837,0.2223,9.6122
2026-03-14 09:15:00.690,1.1927,0.1083,9.787
2026-03-14 09:15:00.700,0.9003,0.0745,9.1426
2026-03-14 09:15:00.710,0.8535,-0.0627,9.5223
2026-03-14 09:15:00.720,0.6763,-0.2991,9.675
2026-03-14 09:15:00.730,0.6644,-0.1364,9.056
2026-03-14 09:15:00.740,0.6105,-0.0809,9.9456
2026-03-14 09:15:00.750,0.7718,-0.0948,9.6029
2026-03-14 09:15:00.760,0.2329,-0.0044,10.028
2026-03-14 09:15:00.770,0.2897,-0.0256,9.4895
2026-03-14 09:15:00.780,0.5277,0.2858,9.8514
2026-03-14 09:15:00.790,0.0524,0.498,9.6148
2026-03-14 09:15:00.800,0.0259,0.2329,9.5484
2026-03-14 09:15:00.810,-0.0915,0.2258,9.9058
2026-03-14 09:15:00.820,-0.5051,0.317,10.025
2026-03-14 09:15:00.830,-0.7414,0.2725,10.1672
2026-03-14 09:15:00.840,-0.9257,0.3595,10.4457
2026-03-14 09:15:00.850,-0.6889,-0.008,10.3333
2026-03-14 09:15:00.860,-0.8356,-0.1431,10.1081
2026-03-14 09:15:00.870,-0.8531,-0.0593,9.5719
2026-03-14 09:15:00.880,-1.0319,-0.4275,9.6674
2026-03-14 09:15:00.890,-1.4406,-0.6113,9.4937
2026-03-14 09:15:00.900,-1.4118,-0.5075,9.851
2026-03-14 09:15:00.910,-1.5245,-0.7787,9.6583
2026-03-14 09:15:00.920,-1.2736,-1.1871,10.069
2026-03-14 09:15:00.930,-1.649,-1.102,9.92
2026-03-14 09:15:00.940,-1.4696,-1.0381,10.1102
2026-03-14 09:15:00.950,-1.4268,-1.3211,9.7672
2026-03-14 09:15:00.960,-1.651,-1.4735,9.4228
2026-03-14 09:15:00.970,-1.2471,-0.9469,9.2949
2026-03-14 09:15:00.980,-0.9209,-1.0822,9.4507
2026-03-14 09:15:00.990,-1.1009,-0.8481,9.3265
2026-03-14 09:15:01.000,-1.0468,-1.1355,9.5216
2026-03-14 09:15:01.010,-0.7768,-0.7165,9.5738
2026-03-14 09:15:01.020,-0.6207,-0.6029,9.898
2026-03-14 09:15:01.030,-0.3624,,10.1229
2026-03-14 09:15:01.040,-0.1382,0.101,9.7232
2026-03-14 09:15:01.050,0.2567,0.1774,9.86
2026-03-14 09:15:01.060,0.2067,0.5472,9.4811
2026-03-14 09:15:01.070,0.5946,0.6509,9.4933
2026-03-14 09:15:01.080,0.8157,1.0173,9.8675
2026-03-14 09:15:01.090,0.9022,0.8688,10.0495
2026-03-14 09:15:01.100,1.0194,,10.2903
2026-03-14 09:15:01.110,1.2369,0.9799,10.2018
2026-03-14 09:15:01.120,1.1078,1.0082,10.2805
2026-03-14 09:15:01.130,1.5841,1.1949,10.2031
2026-03-14 09:15:01.140,0.9313,0.9635,9.8005
2026-03-14 09:15:01.150,1.4096,0.7144,9.5466
2026-03-14 09:15:01.160,1.241,0.5729,9.5126
2026-03-14 09:15:01.170,1.5143,0.5017,9.9946
2026-03-14 09:15:01.180,1.4124,0.642,
2026-03-14 09:15:01.190,1.0864,0.5602,9.9723
2026-03-14 09:15:01.200,1.4919,0.0599,10.0247
2026-03-14 09:15:01.210,1.1248,0.0512,9.8764
2026-03-14 09:15:01.220,1.2477,0.1928,9.8666
2026-03-14 09:15:01.230,0.809,0.0221,9.3375
2026-03-14 09:15:01.240,1.2268,-0.0958,9.3083
2026-03-14 09:15:01.250,1.1007,-0.0618,9.0534
2026-03-14 09:15:01.260,0.7691,-0.1564,9.4859
2026-03-14 09:15:01.270,0.5758,-0.2377,10.0264
2026-03-14 09:15:01.280,0.4465,0.0778,9.8755
2026-03-14 09:15:01.290,0.2656,0.074,10.0922
2026-03-14 09:15:01.300,0.1974,0.2231,10.3474
2026-03-14 09:15:01.310,0.2574,0.1607,10.1358
2026-03-14 09:15:01.320,-0.1786,-0.0228,9.7469
2026-03-14 09:15:01.330,0.1364,0.1197,9.8873
2026-03-14 09:15:01.340,-0.4272,0.0897,9.5465
2026-03-14 09:15:01.350,-0.1604,0.0251,9.7153
2026-03-14 09:15:01.360,-0.5445,0.3145,9.8437
2026-03-14 09:15:01.370,-0.5368,0.0874,10.1654
2026-03-14 09:15:01.380,-0.7544,-0.2334,10.5217
2026-03-14 09:15:01.390,-0.8359,-0.0376,10.5483
2026-03-14 09:15:01.400,-1.5545,-0.1402,9.9152
2026-03-14 09:15:01.410,-1.1776,-0.2555,9.8596
2026-03-14 09:15:01.420,-1.3342,-0.5815,9.786
2026-03-14 09:15:01.430,-1.4188,-0.602,9.6225
2026-03-14 09:15:01.440,-1.6274,-0.8384,9.3032
2026-03-14 09:15:01.450,-1.6822,-1.2262,9.696
2026-03-14 09:15:01.460,-1.5373,-1.0361,9.8705
2026-03-14 09:15:01.470,-1.435,-1.2429,9.6815
2026-03-14 09:15:01.480,-1.5507,-1.1435,9.685
2026-03-14 09:15:01.490,-1.3004,-1.1726,9.663
2026-03-14 09:15:01.500,-1.2617,-0.9389,9.7985
2026-03-14 09:15:01.510,-1.1802,-1.1819,8.9553
2026-03-14 09:15:01.520,-1.0183,-1.3173,9.1681
2026-03-14 09:15:01.530,-1.1024,-0.8152,9.4509
2026-03-14 09:15:01.540,-0.7649,-0.5194,9.9465
2026-03-14 09:15:01.550,-0.429,-0.5233,9.4392
2026-03-14 09:15:01.560,-0.4964,-0.3101,10.0183
2026-03-14 09:15:01.570,-0.0779,0.0627,10.1611
2026-03-14 09:15:01.580,0.1513,0.4148,10.3513
2026-03-14 09:15:01.590,0.3762,0.4226,9.6932
2026-03-14 09:15:01.600,0.3928,0.5877,9.803
2026-03-14 09:15:01.610,0.7888,0.6792,9.7394
2026-03-14 09:15:01.620,0.9571,0.8538,9.8915
2026-03-14 09:15:01.630,0.867,1.0681,9.9091
2026-03-14 09:15:01.640,1.1743,1.0944,10.1569
2026-03-14 09:15:01.650,1.3827,1.0129,10.1955
2026-03-14 09:15:01.660,1.1333,1.0118,10.3582
2026-03-14 09:15:01.670,1.3004,1.2065,10.1437
2026-03-14 09:15:01.680,1.1759,0.7728,9.8486
2026-03-14 09:15:01.690,1.4276,0.6158,9.917
2026-03-14 09:15:01.700,1.3396,0.7489,9.5121
2026-03-14 09:15:01.710,1.5306,0.6688,9.5037
2026-03-14 09:15:01.720,1.3285,0.2829,9.6355
2026-03-14 09:15:01.730,1.3227,0.0723,9.825
2026-03-14 09:15:01.740,1.4355,0.4154,9.9853
2026-03-14 09:15:01.750,1.1761,-0.1085,9.5743
2026-03-14 09:15:01.760,0.9345,-0.1233,9.7881
2026-03-14 09:15:01.770,0.6446,-0.0126,9.4915
2026-03-14 09:15:01.780,0.7673,-0.237,9.477
2026-03-14 09:15:01.790,0.687,-0.1222,9.3909
2026-03-14 09:15:01.800,0.5588,0.108,9.5775
2026-03-14 09:15:01.810,0.4396,0.0765,10.4095
2026-03-14 09:15:01.820,0.3877,0.2185,9.9747
2026-03-14 09:15:01.830,0.0472,-0.1184,9.8407
2026-03-14 09:15:01.840,-0.117,0.0482,10.1677
2026-03-14 09:15:01.850,-0.174,0.2125,10.124
2026-03-14 09:15:01.860,-0.32,0.1102,10.2683
2026-03-14 09:15:01.870,-0.2341,0.4064,9.8869
2026-03-14 09:15:01.880,-0.2601,0.5047,10.0314
2026-03-14 09:15:01.890,-0.5194,0.1064,10.2638
2026-03-14 09:15:01.900,-0.5567,0.2796,9.6875
2026-03-14 09:15:01.910,-0.535,0.1246,10.0389
2026-03-14 09:15:01.920,-1.1721,-0.0492,9.8615
2026-03-14 09:15:01.930,-0.9905,-0.3446,10.1709
2026-03-14 09:15:01.940,-0.9568,-0.4957,
2026-03-14 09:15:01.950,-1.3282,-0.5055,9.8789
2026-03-14 09:15:01.960,-1.4694,-0.6742,9.358
2026-03-14 09:15:01.970,-1.4848,-0.8669,9.5085
2026-03-14 09:15:01.980,-1.4721,-1.1944,9.2702
2026-03-14 09:15:01.990,-1.4346,-1.0502,9.3821
2026-03-14 09:15:02.000,-1.4602,-1.0575,9.4094
2026-03-14 09:15:02.010,-1.492,-0.9105,9.6746
2026-03-14 09:15:02.020,-1.3418,-1.2404,10.0296
2026-03-14 09:15:02.030,-1.5438,-0.9968,9.7811
2026-03-14 09:15:02.040,-1.3646,-0.8587,9.381
2026-03-14 09:15:02.050,-1.0788,-0.7986,9.9121
2026-03-14 09:15:02.060,-1.0378,-0.5968,9.2462
2026-03-14 09:15:02.070,-0.4954,-0.6664,9.4592
2026-03-14 09:15:02.080,-0.3974,,9.6348
2026-03-14 09:15:02.090,-0.2387,0.0891,9.4649
2026-03-14 09:15:02.100,-0.0749,0.1521,9.8492
2026-03-14 09:15:02.110,0.1177,0.5313,10.4545
2026-03-14 09:15:02.120,0.3736,0.5997,10.4569
2026-03-14 09:15:02.130,0.7434,1.0703,10.359
2026-03-14 09:15:02.140,0.8336,0.9574,9.9425
2026-03-14 09:15:02.150,0.8109,0.8937,9.8494
2026-03-14 09:15:02.160,1.2628,0.9057,9.8617
2026-03-14 09:15:02.170,1.2316,0.8746,9.9237
2026-03-14 09:15:02.180,1.154,1.2638,9.852
2026-03-14 09:15:02.190,1.5452,1.0925,10.0513
2026-03-14 09:15:02.200,1.4835,0.79,10.3321
2026-03-14 09:15:02.210,1.4616,0.7828,10.0713
2026-03-14 09:15:02.220,1.0525,0.5099,10.0447
2026-03-14 09:15:02.230,1.2199,0.6104,9.5451
2026-03-14 09:15:02.240,1.2936,0.4696,9.5625
2026-03-14 09:15:02.250,1.2234,0.2019,9.3282
2026-03-14 09:15:02.260,1.1855,0.3419,9.7791
2026-03-14 09:15:02.270,1.1103,0.1122,9.4056
2026-03-14 09:15:02.280,0.9934,0.0816,10.0664
2026-03-14 09:15:02.290,1.0184,0.295,9.7653
2026-03-14 09:15:02.300,1.2855,0.0465,9.7717
2026-03-14 09:15:02.310,0.6574,0.0958,9.9982
2026-03-14 09:15:02.320,0.6873,-0.0566,9.5984
2026-03-14 09:15:02.330,0.2024,-0.0148,9.2514
2026-03-14 09:15:02.340,0.1282,-0.0662,9.3238
2026-03-14 09:15:02.350,0.0557,0.0782,9.7217
2026-03-14 09:15:02.360,0.0553,,9.5457
2026-03-14 09:15:02.370,0.1685,0.3331,10.0916
2026-03-14 09:15:02.380,-0.0289,0.1709,10.049
2026-03-14 09:15:02.390,-0.676,0.0857,10.4091
2026-03-14 09:15:02.400,-0.7179,0.2185,10.0958
2026-03-14 09:15:02.410,-0.7096,0.2712,9.8097
2026-03-14 09:15:02.420,-0.5133,0.156,9.6703
2026-03-14 09:15:02.430,-0.7039,0.3117,9.5242
2026-03-14 09:15:02.440,-1.0024,-0.0869,10.3671
2026-03-14 09:15:02.450,-1.2881,-0.312,9.7708
2026-03-14 09:15:02.460,-1.0567,-0.372,10.0216
2026-03-14 09:15:02.470,-1.1032,-0.8978,10.4156
2026-03-14 09:15:02.480,-1.1523,-0.6545,9.8519
2026-03-14 09:15:02.490,-1.3148,-0.7412,10.0704
2026-03-14 09:15:02.500,-1.4909,-1.156,9.4102
2026-03-14 09:15:02.510,,-1.0307,9.1471
2026-03-14 09:15:02.520,-1.378,-1.4215,9.5885
2026-03-14 09:15:02.530,-1.3499,-1.036,9.2996
2026-03-14 09:15:02.540,-1.7096,-1.3531,9.5951
2026-03-14 09:15:02.550,-1.5283,-1.0542,9.5502
2026-03-14 09:15:02.560,-1.1401,-0.9367,9.9208
2026-03-14 09:15:02.570,-1.0444,-1.1236,10.0097
2026-03-14 09:15:02.580,-0.8536,-0.685,9.8942
2026-03-14 09:15:02.590,-0.8162,-0.5362,9.259
2026-03-14 09:15:02.600,-0.6545,-0.4912,9.6652
2026-03-14 09:15:02.610,-0.3782,-0.1225,9.1872
2026-03-14 09:15:02.620,-0.0027,0.0289,9.5867
2026-03-14 09:15:02.630,-0.1138,0.0119,9.7834
2026-03-14 09:15:02.640,0.0257,0.4559,10.409
2026-03-14 09:15:02.650,0.6037,0.7604,10.6539
2026-03-14 09:15:02.660,0.3575,1.1551,10.2839
2026-03-14 09:15:02.670,1.1279,0.6822,9.9339
2026-03-14 09:15:02.680,0.988,1.0659,10.0779
2026-03-14 09:15:02.690,1.1374,0.8175,9.8763
2026-03-14 09:15:02.700,1.3885,1.1682,9.9561
2026-03-14 09:15:02.710,1.3615,0.9484,9.8593
2026-03-14 09:15:02.720,1.0489,0.9572,9.8841
2026-03-14 09:15:02.730,1.1762,0.9028,9.7705
2026-03-14 09:15:02.740,1.2078,0.7394,10.3142
2026-03-14 09:15:02.750,1.3833,0.6005,10.197
2026-03-14 09:15:02.760,1.457,0.7655,10.2862
2026-03-14 09:15:02.770,1.3159,0.6413,9.7681
2026-03-14 09:15:02.780,1.1419,0.1649,9.2575
2026-03-14 09:15:02.790,1.2537,0.1011,9.2937
2026-03-14 09:15:02.800,1.0937,0.143,9.2166
2026-03-14 09:15:02.810,1.0011,-0.1419,9.5506
2026-03-14 09:15:02.820,0.94,-0.0151,9.4667
2026-03-14 09:15:02.830,0.445,-0.0781,9.7435
2026-03-14 09:15:02.840,0.8203,0.1323,10.2
2026-03-14 09:15:02.850,0.536,-0.2901,9.8929
2026-03-14 09:15:02.860,0.287,0.0771,10.3994
2026-03-14 09:15:02.870,0.425,-0.0976,9.8682
2026-03-14 09:15:02.880,0.2324,0.1865,9.7128
2026-03-14 09:15:02.890,0.0799,0.2168,9.4363
2026-03-14 09:15:02.900,0.1878,0.2276,9.8854
2026-03-14 09:15:02.910,-0.1061,0.5704,9.9356
2026-03-14 09:15:02.920,-0.4073,0.1655,10.2103
2026-03-14 09:15:02.930,-0.5539,0.2487,10.1435
2026-03-14 09:15:02.940,-0.6145,0.2137,10.1621
2026-03-14 09:15:02.950,-0.5785,0.2032,9.9111
2026-03-14 09:15:02.960,-0.98,-0.0603,9.9002
2026-03-14 09:15:02.970,-0.9356,0.0309,9.7958
2026-03-14 09:15:02.980,-0.9548,-0.275,9.8167
2026-03-14 09:15:02.990,-1.0789,-0.3309,10.0999
2026-03-14 09:15:03.000,-1.0805,-0.42,9.9847
2026-03-14 09:15:03.010,-1.2387,-0.4694,10.0815
2026-03-14 09:15:03.020,-1.5344,-0.9639,9.6858
2026-03-14 09:15:03.030,-1.5055,-0.966,9.6931
2026-03-14 09:15:03.040,-1.6383,-0.9632,9.9361
2026-03-14 09:15:03.050,-1.7889,-1.011,9.6469
2026-03-14 09:15:03.060,-1.6821,,9.5236
2026-03-14 09:15:03.070,-1.4487,-1.0571,9.5223
2026-03-14 09:15:03.080,-1.3911,-1.1666,9.1048
2026-03-14 09:15:03.090,-1.0393,-1.2078,9.5708
2026-03-14 09:15:03.100,-1.2829,-0.852,9.6129
2026-03-14 09:15:03.110,-1.0154,-0.6788,9.5471
2026-03-14 09:15:03.120,-0.6768,,9.8877
2026-03-14 09:15:03.130,-0.5228,-0.314,9.7193
2026-03-14 09:15:03.140,-0.215,,9.892
2026-03-14 09:15:03.150,-0.2333,0.2358,9.577
2026-03-14 09:15:03.160,0.0782,0.3185,9.4894
2026-03-14 09:15:03.170,0.1162,0.3811,9.6333
2026-03-14 09:15:03.180,,0.7421,10.2019
2026-03-14 09:15:03.190,0.7803,0.8074,10.2212
2026-03-14 09:15:03.200,0.9163,0.9007,10.2169
2026-03-14 09:15:03.210,1.1432,0.6349,10.2351
2026-03-14 09:15:03.220,0.9842,1.3842,10.0029
2026-03-14 09:15:03.230,1.2844,0.991,10.0691
2026-03-14 09:15:03.240,1.3948,1.0897,9.5081
2026-03-14 09:15:03.250,1.6108,0.7227,10.0572
2026-03-14 09:15:03.260,1.3856,0.6795,9.6821
2026-03-14 09:15:03.270,1.569,0.7992,9.8765
2026-03-14 09:15:03.280,1.3304,0.4765,10.1319
2026-03-14 09:15:03.290,1.6405,0.8736,9.983
2026-03-14 09:15:03.300,1.2759,0.7242,10.1171
2026-03-14 09:15:03.310,1.21,0.1651,9.4347
2026-03-14 09:15:03.320,1.4251,0.1467,9.3247
2026-03-14 09:15:03.330,1.0643,0.1436,9.7641
2026-03-14 09:15:03.340,0.8951,-0.3328,9.2825
2026-03-14 09:15:03.350,0.6229,-0.0627,9.5376
2026-03-14 09:15:03.360,0.5301,-0.3561,9.753
2026-03-14 09:15:03.370,0.809,0.1608,9.839
2026-03-14 09:15:03.380,0.419,0.3497,10.0255
2026-03-14 09:15:03.390,0.6731,0.051,10.2377
2026-03-14 09:15:03.400,0.361,0.3041,10.254
2026-03-14 09:15:03.410,0.2197,0.242,9.9001
2026-03-14 09:15:03.420,0.0985,0.1852,9.3382
2026-03-14 09:15:03.430,0.3829,0.1436,9.8628
2026-03-14 09:15:03.440,-0.3597,0.4006,9.9666
2026-03-14 09:15:03.450,-0.3651,0.2888,10.1971
2026-03-14 09:15:03.460,-0.5045,0.2596,10.1394
2026-03-14 09:15:03.470,-0.5591,0.1394,10.6127
2026-03-14 09:15:03.480,-0.838,0.217,10.3106
2026-03-14 09:15:03.490,-0.896,0.0122,10.3956
2026-03-14 09:15:03.500,-1.1341,-0.0814,9.9353
2026-03-14 09:15:03.510,-1.0222,-0.6402,10.0872
2026-03-14 09:15:03.520,-1.4402,-0.389,9.6373
2026-03-14 09:15:03.530,-1.3213,-0.7084,9.4853
2026-03-14 09:15:03.540,-1.2588,-0.6753,
2026-03-14 09:15:03.550,-1.495,-0.8435,10.2033
2026-03-14 09:15:03.560,-1.4938,-1.2285,9.925
2026-03-14 09:15:03.570,-1.548,-1.0317,9.5709
2026-03-14 09:15:03.580,-1.4347,-0.9045,9.8277
2026-03-14 09:15:03.590,-1.4368,-1.1988,9.4569
2026-03-14 09:15:03.600,-1.3555,-1.1002,9.4357
2026-03-14 09:15:03.610,-1.1834,-1.2188,9.1671
2026-03-14 09:15:03.620,-1.001,-1.103,9.2925
2026-03-14 09:15:03.630,-1.1556,-0.7262,9.5325
2026-03-14 09:15:03.640,-0.7912,-0.5504,9.8412
2026-03-14 09:15:03.650,-0.3915,-0.8567,9.8223
2026-03-14 09:15:03.660,-0.3213,,10.1272
2026-03-14 09:15:03.670,-0.2074,-0.0558,10.0782
2026-03-14 09:15:03.680,0.0774,0.0842,10.264
2026-03-14 09:15:03.690,0.3478,-0.0646,10.1411
2026-03-14 09:15:03.700,0.2313,0.5508,9.4376
2026-03-14 09:15:03.710,0.341,0.7486,9.1285
2026-03-14 09:15:03.720,0.5288,0.9263,10.1272
2026-03-14 09:15:03.730,0.8753,0.9563,10.2278
2026-03-14 09:15:03.740,0.8971,1.0599,10.3252
2026-03-14 09:15:03.750,1.3671,0.8498,10.3105
2026-03-14 09:15:03.760,1.1233,0.8068,10.468
2026-03-14 09:15:03.770,1.2659,1.0828,9.9583
2026-03-14 09:15:03.780,1.0922,0.7156,10.1344
2026-03-14 09:15:03.790,1.337,0.9672,9.5326
2026-03-14 09:15:03.800,1.4255,0.6956,9.5886
2026-03-14 09:15:03.810,1.2252,0.4594,9.7807
2026-03-14 09:15:03.820,1.0309,0.5162,9.6543
2026-03-14 09:15:03.830,1.3186,0.1851,9.8941
2026-03-14 09:15:03.840,0.9705,0.1221,9.69
2026-03-14 09:15:03.850,1.1064,-0.1613,9.63
2026-03-14 09:15:03.860,1.1219,0.1284,9.6167
2026-03-14 09:15:03.870,0.9828,-0.0816,9.3939
2026-03-14 09:15:03.880,1.1023,0.152,9.29
2026-03-14 09:15:03.890,0.7257,-0.0368,9.6211
2026-03-14 09:15:03.900,0.6405,0.1344,9.2969
2026-03-14 09:15:03.910,0.4402,0.0591,9.6718
2026-03-14 09:15:03.920,0.5294,-0.2264,9.7751
2026-03-14 09:15:03.930,0.0025,0.2314,10.1341
2026-03-14 09:15:03.940,-0.0862,0.4461,10.3068
2026-03-14 09:15:03.950,0.204,0.2994,10.0174
2026-03-14 09:15:03.960,-0.2509,0.416,10.015
2026-03-14 09:15:03.970,-0.5211,0.0642,9.8762
2026-03-14 09:15:03.980,-0.2275,0.1655,9.7455
2026-03-14 09:15:03.990,-0.2699,0.2954,9.9837
2026-03-14 09:15:04.000,-0.5327,0.1753,10.1623
2026-03-14 09:15:04.010,-0.7829,0.0973,10.3487
2026-03-14 09:15:04.020,-0.9024,-0.0192,10.3308
2026-03-14 09:15:04.030,-0.9978,-0.17,10.4102
2026-03-14 09:15:04.040,-1.1971,-0.3747,9.8744
2026-03-14 09:15:04.050,-1.363,-0.5867,10.1601
2026-03-14 09:15:04.060,-1.4207,-0.4466,9.526
2026-03-14 09:15:04.070,-1.4354,-0.6004,9.3893
2026-03-14 09:15:04.080,-1.332,-0.7159,9.2101
2026-03-14 09:15:04.090,-1.6483,-0.9679,9.5611
2026-03-14 09:15:04.100,-1.4272,-1.2291,9.5065
2026-03-14 09:15:04.110,-1.666,-1.3134,10.271
2026-03-14 09:15:04.120,-1.1743,-1.0252,10.03
2026-03-14 09:15:04.130,-1.2912,-1.291,9.5877
2026-03-14 09:15:04.140,-1.2425,-1.346,9.4368
2026-03-14 09:15:04.150,-1.1824,-1.1182,9.735
2026-03-14 09:15:04.160,-0.8798,-0.7589,9.6467
2026-03-14 09:15:04.170,-0.7875,-0.5138,9.5561
2026-03-14 09:15:04.180,-0.5836,-0.3651,9.9006
2026-03-14 09:15:04.190,-0.2876,-0.178,9.794
2026-03-14 09:15:04.200,-0.1395,-0.1658,10.1666
2026-03-14 09:15:04.210,0.0607,0.3098,9.9625
2026-03-14 09:15:04.220,0.1233,0.3083,10.062
2026-03-14 09:15:04.230,0.6302,0.9285,10.0526
2026-03-14 09:15:04.240,1.0181,0.7799,9.8171
2026-03-14 09:15:04.250,,1.0101,9.7432
2026-03-14 09:15:04.260,1.1908,0.9123,9.751
2026-03-14 09:15:04.270,0.9231,1.0675,9.9259
2026-03-14 09:15:04.280,1.124,1.1086,10.4265
2026-03-14 09:15:04.290,1.5087,1.0884,10.0244
2026-03-14 09:15:04.300,1.6435,1.047,10.5255
2026-03-14 09:15:04.310,1.3794,0.8005,9.9072
2026-03-14 09:15:04.320,1.4547,0.6963,9.8848
2026-03-14 09:15:04.330,1.2978,0.5568,9.7318
2026-03-14 09:15:04.340,1.1306,0.6069,9.2876
2026-03-14 09:15:04.350,1.1603,0.2308,9.6808
2026-03-14 09:15:04.360,1.0377,0.433,9.4729
2026-03-14 09:15:04.370,0.9649,0.0637,9.6655
2026-03-14 09:15:04.380,1.1727,-0.0282,10.0053
2026-03-14 09:15:04.390,1.0329,,9.645
2026-03-14 09:15:04.400,1.0292,-0.0214,9.4752
2026-03-14 09:15:04.410,0.7474,,9.7757
2026-03-14 09:15:04.420,0.6931,-0.1072,9.4665
2026-03-14 09:15:04.430,0.8497,0.2819,9.3725
2026-03-14 09:15:04.440,0.4573,-0.1273,9.6531
2026-03-14 09:15:04.450,0.2744,0.1437,9.8334
2026-03-14 09:15:04.460,0.1042,0.2955,10.0497
2026-03-14 09:15:04.470,0.0824,0.2507,10.3415
2026-03-14 09:15:04.480,0.1333,0.4501,10.1761
2026-03-14 09:15:04.490,-0.1512,0.318,10.3277
2026-03-14 09:15:04.500,-0.2479,0.1902,10.0446
2026-03-14 09:15:04.510,-0.2275,0.1849,9.5522
2026-03-14 09:15:04.520,-0.5514,0.1433,9.503
2026-03-14 09:15:04.530,-0.6291,0.2161,10.0256
2026-03-14 09:15:04.540,-0.5608,-0.1934,9.662
2026-03-14 09:15:04.550,-0.9889,0.0516,10.0289
2026-03-14 09:15:04.560,-1.3905,-0.4915,10.2812
2026-03-14 09:15:04.570,-1.25,-0.5492,10.1263
2026-03-14 09:15:04.580,-1.1381,-0.6821,10.5332
2026-03-14 09:15:04.590,-1.5064,-0.7952,9.7652
2026-03-14 09:15:04.600,-1.4115,-0.638,9.6602
2026-03-14 09:15:04.610,-1.574,-0.9213,9.3809
2026-03-14 09:15:04.620,-1.7397,-0.9673,9.3353
2026-03-14 09:15:04.630,-1.8212,-1.0876,9.7101
2026-03-14 09:15:04.640,-1.4232,-1.0725,9.3616
2026-03-14 09:15:04.650,-1.4458,-1.0353,9.7881
2026-03-14 09:15:04.660,-1.4852,-1.4288,9.9604
2026-03-14 09:15:04.670,-1.082,-1.0134,9.3597
2026-03-14 09:15:04.680,-1.2904,-0.938,9.3137
2026-03-14 09:15:04.690,-0.9534,-0.9219,9.4311
2026-03-14 09:15:04.700,-0.6831,-0.5901,9.1895
2026-03-14 09:15:04.710,-0.4048,-0.4136,9.3022
2026-03-14 09:15:04.720,-0.2889,-0.2554,9.4285
2026-03-14 09:15:04.730,-0.1073,-0.0118,10.0433
2026-03-14 09:15:04.740,0.0783,0.2868,10.3225
2026-03-14 09:15:04.750,0.3797,0.3846,10.1013
2026-03-14 09:15:04.760,0.8942,0.5614,10.4282
2026-03-14 09:15:04.770,0.6312,0.7112,10.1134
2026-03-14 09:15:04.780,0.9737,0.992,9.8446
2026-03-14 09:15:04.790,0.6296,1.081,9.9901
2026-03-14 09:15:04.800,1.3539,0.8991,10.0096
2026-03-14 09:15:04.810,1.1378,1.1352,9.7131
2026-03-14 09:15:04.820,1.0979,1.0501,10.0196
2026-03-14 09:15:04.830,1.1485,0.7253,9.749
2026-03-14 09:15:04.840,1.5155,0.7432,9.8974
2026-03-14 09:15:04.850,1.3525,0.8091,9.4373
2026-03-14 09:15:04.860,1.1948,0.5631,9.5834
2026-03-14 09:15:04.870,1.1674,0.2182,9.979
2026-03-14 09:15:04.880,1.3461,0.2945,9.1416
2026-03-14 09:15:04.890,1.4267,0.3076,9.326
2026-03-14 09:15:04.900,1.0702,0.2205,9.6161
2026-03-14 09:15:04.910,1.1124,-0.0511,9.4566
2026-03-14 09:15:04.920,0.9113,-0.0988,9.5893
2026-03-14 09:15:04.930,0.7738,0.1394,9.7982
2026-03-14 09:15:04.940,0.7197,0.0218,9.4772
2026-03-14 09:15:04.950,0.6551,-0.0191,9.8262
2026-03-14 09:15:04.960,0.4451,-0.1232,9.5018
2026-03-14 09:15:04.970,0.3998,0.06,9.4627
2026-03-14 09:15:04.980,0.2042,0.0613,9.6606
2026-03-14 09:15:04.990,0.0825,0.1204,9.5173
2026-03-14 09:15:05.000,0.1,0.1141,9.8209
2026-03-14 09:15:05.010,-0.1157,0.1898,10.0687
2026-03-14 09:15:05.020,-0.182,0.3658,10.3206
2026-03-14 09:15:05.030,-0.5586,0.0401,10.3512
2026-03-14 09:15:05.040,-0.5427,0.4697,10.0917
2026-03-14 09:15:05.050,-0.6694,0.4298,10.3332
2026-03-14 09:15:05.060,-0.8447,0.2614,10.3036
2026-03-14 09:15:05.070,-0.6692,-0.2076,9.5894
2026-03-14 09:15:05.080,-0.9975,0.2165,9.5531
2026-03-14 09:15:05.090,-1.0743,-0.2827,10.1815
2026-03-14 09:15:05.100,-1.3544,-0.5902,9.7653
2026-03-14 09:15:05.110,-1.1203,-0.5166,10.0566
2026-03-14 09:15:05.120,-1.1453,-0.6691,9.9803
2026-03-14 09:15:05.130,-1.5114,,9.6358
2026-03-14 09:15:05.140,-1.3348,-0.9296,9.817
2026-03-14 09:15:05.150,-1.5874,-1.0089,9.2456
2026-03-14 09:15:05.160,-1.2222,-1.0779,9.1681
2026-03-14 09:15:05.170,-1.4799,-1.2333,9.2178
2026-03-14 09:15:05.180,-1.2551,-1.2212,9.668
2026-03-14 09:15:05.190,-1.2566,-1.1431,9.5373
2026-03-14 09:15:05.200,-1.2613,-1.1604,9.7422
2026-03-14 09:15:05.210,-0.9507,-0.958,9.6768
2026-03-14 09:15:05.220,-0.648,-0.7692,9.7801
2026-03-14 09:15:05.230,-0.6301,-0.4762,9.8295
2026-03-14 09:15:05.240,-0.2984,-0.1797,9.5582
2026-03-14 09:15:05.250,-0.1195,0.1604,9.5409
2026-03-14 09:15:05.260,0.029,0.1527,10.0847
2026-03-14 09:15:05.270,0.1944,0.704,9.8106
2026-03-14 09:15:05.280,0.726,0.5933,10.464
2026-03-14 09:15:05.290,0.8068,0.6638,10.2316
2026-03-14 09:15:05.300,1.0739,0.8073,10.414
2026-03-14 09:15:05.310,0.9591,0.93,9.9713
2026-03-14 09:15:05.320,1.0482,1.0429,10.2175
2026-03-14 09:15:05.330,1.2615,,10.1366
2026-03-14 09:15:05.340,1.5427,1.0553,10.0971
2026-03-14 09:15:05.350,1.4399,0.9118,9.7765
2026-03-14 09:15:05.360,1.4166,0.6698,9.8496
2026-03-14 09:15:05.370,1.2505,1.0345,9.9533
2026-03-14 09:15:05.380,1.3004,0.3986,9.9077
2026-03-14 09:15:05.390,1.3527,0.7465,10.1636
2026-03-14 09:15:05.400,1.3646,0.6352,10.1293
2026-03-14 09:15:05.410,1.1912,0.0884,9.582
2026-03-14 09:15:05.420,1.1208,0.2039,9.4849
2026-03-14 09:15:05.430,1.1055,0.178,9.3324
2026-03-14 09:15:05.440,1.0015,0.0686,9.153
2026-03-14 09:15:05.450,0.7715,-0.255,9.687
2026-03-14 09:15:05.460,0.8587,0.0047,9.5791
2026-03-14 09:15:05.470,0.6743,0.0016,9.8266
2026-03-14 09:15:05.480,0.6655,-0.0562,10.1407
2026-03-14 09:15:05.490,0.935,-0.111,10.0569
2026-03-14 09:15:05.500,0.7464,0.1839,9.7458
2026-03-14 09:15:05.510,0.1348,0.2196,9.4487
2026-03-14 09:15:05.520,-0.0847,0.2925,9.8578
2026-03-14 09:15:05.530,0.1246,0.2487,9.776
2026-03-14 09:15:05.540,-0.1474,0.3142,9.9852
2026-03-14 09:15:05.550,-0.1416,0.1712,9.8669
2026-03-14 09:15:05.560,-0.2954,0.3695,10.2743
2026-03-14 09:15:05.570,-0.4302,0.2251,10.2833
2026-03-14 09:15:05.580,-0.5952,0.2769,9.9444
2026-03-14 09:15:05.590,-0.8066,-0.1792,
2026-03-14 09:15:05.600,-1.0286,-0.0851,9.9412
2026-03-14 09:15:05.610,-1.2255,-0.3296,9.8752
2026-03-14 09:15:05.620,-0.9804,-0.2383,9.6413
2026-03-14 09:15:05.630,-1.3546,-0.326,9.8356
2026-03-14 09:15:05.640,-1.4053,-0.8631,10.1483
2026-03-14 09:15:05.650,-1.4885,-1.0081,10.0356
2026-03-14 09:15:05.660,-1.5596,-1.2083,9.8964
2026-03-14 09:15:05.670,-1.4336,,9.8061
2026-03-14 09:15:05.680,-1.468,-1.092,9.6946
2026-03-14 09:15:05.690,-1.62,-1.3749,9.5823
2026-03-14 09:15:05.700,-1.4203,-1.3986,9.0553
2026-03-14 09:15:05.710,-1.132,-1.1846,9.4101
2026-03-14 09:15:05.720,-1.1407,-1.091,8.9714
2026-03-14 09:15:05.730,-0.9692,-0.6674,9.9025
2026-03-14 09:15:05.740,-1.0651,-0.7052,10.0156
2026-03-14 09:15:05.750,-0.7728,-0.7375,9.8388
2026-03-14 09:15:05.760,-0.5769,-0.5332,9.9679
2026-03-14 09:15:05.770,-0.1892,,9.8486
2026-03-14 09:15:05.780,-0.0226,-0.0779,9.7187
2026-03-14 09:15:05.790,-0.1392,0.3305,9.8079
2026-03-14 09:15:05.800,0.3628,0.3668,9.7794
2026-03-14 09:15:05.810,0.5329,0.8356,9.7959
2026-03-14 09:15:05.820,0.64,0.7763,10.2062
2026-03-14 09:15:05.830,0.5128,0.6283,10.3241
2026-03-14 09:15:05.840,0.9701,0.9665,10.06
2026-03-14 09:15:05.850,1.2283,1.1164,10.5674
2026-03-14 09:15:05.860,1.3043,1.3457,9.8575
2026-03-14 09:15:05.870,1.4376,1.1349,9.7677
2026-03-14 09:15:05.880,1.323,0.9507,9.6672
2026-03-14 09:15:05.890,1.5079,0.7301,9.4138
2026-03-14 09:15:05.900,1.5441,0.8328,9.6826
2026-03-14 09:15:05.910,1.4037,0.6506,9.7578
2026-03-14 09:15:05.920,1.56,0.4804,10.0157
2026-03-14 09:15:05.930,1.4565,0.4534,10.0063
2026-03-14 09:15:05.940,,-0.2228,10.073
2026-03-14 09:15:05.950,1.3115,0.068,9.9866
2026-03-14 09:15:05.960,1.4622,0.214,9.8437
2026-03-14 09:15:05.970,1.1647,0.4703,9.3035
2026-03-14 09:15:05.980,1.0393,-0.074,9.2536
2026-03-14 09:15:05.990,0.8322,-0.0535,9.3303
2026-03-14 09:15:06.000,0.7812,-0.06,9.1157
2026-03-14 09:15:06.010,0.479,-0.0061,9.5458
2026-03-14 09:15:06.020,0.4555,-0.1038,10.3311
2026-03-14 09:15:06.030,0.1896,0.3036,10.2499
2026-03-14 09:15:06.040,0.0812,0.2946,9.9201
2026-03-14 09:15:06.050,0.1628,0.3661,9.7888
2026-03-14 09:15:06.060,0.0385,0.3582,10.1036
2026-03-14 09:15:06.070,0.1922,0.4129,9.7039
2026-03-14 09:15:06.080,-0.3188,0.792,9.582
2026-03-14 09:15:06.090,-0.3158,0.2444,9.8367
2026-03-14 09:15:06.100,-0.6489,0.3325,
2026-03-14 09:15:06.110,-0.5037,0.2005,10.3096
2026-03-14 09:15:06.120,-0.7753,0.2484,10.2592
2026-03-14 09:15:06.130,-1.1045,-0.0887,10.083
2026-03-14 09:15:06.140,-1.0068,-0.2678,10.1724
2026-03-14 09:15:06.150,-1.0896,-0.3829,9.5228
2026-03-14 09:15:06.160,-1.2193,-0.5721,9.5155
2026-03-14 09:15:06.170,-1.3847,-0.9058,9.409
2026-03-14 09:15:06.180,-1.5095,-0.9929,9.7469
2026-03-14 09:15:06.190,-1.3998,-1.0582,10.0223
2026-03-14 09:15:06.200,-1.5784,-1.035,9.5579
2026-03-14 09:15:06.210,-1.3743,-0.9968,9.8289
2026-03-14 09:15:06.220,-1.5563,-1.0464,9.83
2026-03-14 09:15:06.230,-1.4593,-1.1043,9.3848
2026-03-14 09:15:06.240,-1.3556,-1.4491,9.4238
2026-03-14 09:15:06.250,-0.9569,-1.0203,9.2385
2026-03-14 09:15:06.260,,-0.8339,8.8626
2026-03-14 09:15:06.270,-0.6341,-0.8833,9.1808
2026-03-14 09:15:06.280,,-0.5617,9.8767
2026-03-14 09:15:06.290,-0.5001,-0.4192,9.9915
2026-03-14 09:15:06.300,-0.3637,-0.1216,10.002
2026-03-14 09:15:06.310,0.0709,-0.1174,10.1955
2026-03-14 09:15:06.320,-0.1534,0.253,10.0673
2026-03-14 09:15:06.330,0.1796,0.5682,9.7024
2026-03-14 09:15:06.340,0.832,0.7596,9.3351
2026-03-14 09:15:06.350,0.7659,0.717,9.6978
2026-03-14 09:15:06.360,0.7215,0.8208,10.1471
2026-03-14 09:15:06.370,1.2147,1.1815,10.3162
2026-03-14 09:15:06.380,1.3243,1.011,10.322
2026-03-14 09:15:06.390,1.1382,1.1185,10.5238
2026-03-14 09:15:06.400,1.3999,1.1052,9.9892
2026-03-14 09:15:06.410,1.6114,0.8982,9.7587
2026-03-14 09:15:06.420,1.4667,0.9499,9.2689
2026-03-14 09:15:06.430,1.2319,0.6892,9.9213
2026-03-14 09:15:06.440,1.6855,0.3763,9.5023
2026-03-14 09:15:06.450,1.3182,0.476,9.5576
2026-03-14 09:15:06.460,1.4909,0.6131,10.2132
2026-03-14 09:15:06.470,1.3044,0.0343,9.7912
2026-03-14 09:15:06.480,1.1107,-0.1264,10.0287
2026-03-14 09:15:06.490,,-0.1642,9.606
2026-03-14 09:15:06.500,0.6833,-0.218,9.9057
2026-03-14 09:15:06.510,0.815,-0.0705,9.8453
2026-03-14 09:15:06.520,0.7567,-0.0215,9.0488
2026-03-14 09:15:06.530,0.686,0.1092,9.6228
2026-03-14 09:15:06.540,0.5907,0.0551,9.4646
2026-03-14 09:15:06.550,0.508,-0.2255,9.9488
2026-03-14 09:15:06.560,0.5333,0.3933,9.8186
2026-03-14 09:15:06.570,0.1816,0.1685,10.1354
2026-03-14 09:15:06.580,-0.1769,0.114,9.9777
2026-03-14 09:15:06.590,-0.1603,0.1421,9.7849
2026-03-14 09:15:06.600,-0.02,0.0998,9.7722
2026-03-14 09:15:06.610,-0.3901,0.1703,9.4445
2026-03-14 09:15:06.620,-0.6743,0.0384,9.8304
2026-03-14 09:15:06.630,-0.8129,0.2899,9.6839
2026-03-14 09:15:06.640,-0.8745,-0.0628,9.9079
2026-03-14 09:15:06.650,-0.9206,-0.0454,10.0303
2026-03-14 09:15:06.660,-1.3298,-0.3626,10.2899
2026-03-14 09:15:06.670,-1.2123,-0.3132,10.4443
2026-03-14 09:15:06.680,-1.0872,-0.4935,9.5434
2026-03-14 09:15:06.690,-1.2492,-0.6538,9.2035
2026-03-14 09:15:06.700,-1.3749,-0.6258,9.1169
2026-03-14 09:15:06.710,-1.2918,-0.8549,9.7166
2026-03-14 09:15:06.720,-1.5769,-1.0698,9.4498
2026-03-14 09:15:06.730,-1.6899,-1.1529,
2026-03-14 09:15:06.740,-1.2949,-1.0309,9.342
2026-03-14 09:15:06.750,-1.461,-1.3098,10.0282
2026-03-14 09:15:06.760,-1.0941,-1.2627,9.8381
2026-03-14 09:15:06.770,-1.0078,-1.3438,9.5196
2026-03-14 09:15:06.780,-1.0615,-0.6508,9.6609
2026-03-14 09:15:06.790,-0.9026,-0.6568,9.3674
2026-03-14 09:15:06.800,-0.629,-0.6489,9.6876
2026-03-14 09:15:06.810,-0.7451,-0.6967,9.4626
2026-03-14 09:15:06.820,-0.3336,-0.342,9.7344
2026-03-14 09:15:06.830,-0.1897,-0.0751,9.9352
2026-03-14 09:15:06.840,-0.3246,0.0897,10.163
2026-03-14 09:15:06.850,0.0622,0.3314,10.113
2026-03-14 09:15:06.860,0.4985,0.809,10.2969
2026-03-14 09:15:06.870,0.4053,0.7783,9.7774
2026-03-14 09:15:06.880,0.7742,1.0966,10.0354
2026-03-14 09:15:06.890,1.1805,0.9835,9.9999
2026-03-14 09:15:06.900,1.2243,1.0521,10.2801
2026-03-14 09:15:06.910,1.3478,0.8359,10.1845
2026-03-14 09:15:06.920,1.1001,1.1615,10.1984
2026-03-14 09:15:06.930,1.3578,1.2422,10.1452
2026-03-14 09:15:06.940,0.8394,1.0477,9.9687
2026-03-14 09:15:06.950,1.2818,0.8159,10.0108
2026-03-14 09:15:06.960,1.5639,0.7262,9.5906
2026-03-14 09:15:06.970,1.1614,0.392,9.3937
2026-03-14 09:15:06.980,1.2878,0.0043,9.5401
2026-03-14 09:15:06.990,1.1375,0.4044,9.62
2026-03-14 09:15:07.000,1.3458,0.0514,9.6245
2026-03-14 09:15:07.010,0.8034,0.1737,9.5552
2026-03-14 09:15:07.020,1.1509,0.0312,9.8636
2026-03-14 09:15:07.030,0.9522,-0.081,9.8479
2026-03-14 09:15:07.040,0.8998,0.2571,9.658
2026-03-14 09:15:07.050,0.5926,-0.1871,9.5365
2026-03-14 09:15:07.060,0.4474,-0.1547,9.5227
2026-03-14 09:15:07.070,0.6371,0.0208,9.7071
2026-03-14 09:15:07.080,0.5565,0.1255,9.3533
2026-03-14 09:15:07.090,0.0634,0.413,9.8087
2026-03-14 09:15:07.100,0.166,0.057,9.7847
2026-03-14 09:15:07.110,0.0749,0.2699,10.2433
2026-03-14 09:15:07.120,-0.4232,0.4617,10.3776
2026-03-14 09:15:07.130,-0.3445,0.2172,10.3881
2026-03-14 09:15:07.140,-0.1195,0.357,10.0126
2026-03-14 09:15:07.150,-0.4108,0.1182,10.0424
2026-03-14 09:15:07.160,-0.944,0.3017,9.5747
2026-03-14 09:15:07.170,-1.0769,0.1641,9.8482
2026-03-14 09:15:07.180,-1.0256,0.0779,9.9926
2026-03-14 09:15:07.190,-1.1011,-0.4115,10.2315
2026-03-14 09:15:07.200,-1.3213,-0.1728,10.2409
2026-03-14 09:15:07.210,-1.2037,-0.5888,10.5363
2026-03-14 09:15:07.220,-1.3807,-0.7016,9.7212
2026-03-14 09:15:07.230,-1.4374,-1.0216,9.9024
2026-03-14 09:15:07.240,-1.6503,-0.9282,9.4555
2026-03-14 09:15:07.250,-1.455,-1.0097,9.2846
2026-03-14 09:15:07.260,-1.7491,-1.06,9.6555
2026-03-14 09:15:07.270,-1.578,-1.033,9.795
2026-03-14 09:15:07.280,-1.2934,-0.8735,9.8438
2026-03-14 09:15:07.290,-1.1194,-1.1237,9.9271
2026-03-14 09:15:07.300,-1.0924,-1.0468,10.0245
2026-03-14 09:15:07.310,-1.366,-1.1166,9.8378
2026-03-14 09:15:07.320,-0.5817,-0.7939,9.7646
2026-03-14 09:15:07.330,-0.5051,-0.65,9.9675
2026-03-14 09:15:07.340,-0.44,-0.3375,10.3461
2026-03-14 09:15:07.350,-0.5159,0.0815,9.5825
2026-03-14 09:15:07.360,-0.212,0.0456,9.9796
2026-03-14 09:15:07.370,0.2399,0.3463,9.8193
2026-03-14 09:15:07.380,0.3585,0.3872,10.6204
2026-03-14 09:15:07.390,0.6712,0.6909,10.7061
2026-03-14 09:15:07.400,0.685,0.5231,9.9165
2026-03-14 09:15:07.410,0.6241,1.099,9.906
2026-03-14 09:15:07.420,0.9505,0.8866,9.9442
2026-03-14 09:15:07.430,1.4174,1.0201,9.6419
2026-03-14 09:15:07.440,1.1378,0.8917,9.1089
2026-03-14 09:15:07.450,1.2947,1.2817,9.7575
2026-03-14 09:15:07.460,1.2305,0.6832,9.9734
2026-03-14 09:15:07.470,1.1995,0.8147,9.758
2026-03-14 09:15:07.480,1.1708,0.9503,10.0904
2026-03-14 09:15:07.490,1.2621,0.6264,9.8531
2026-03-14 09:15:07.500,1.4048,0.3979,9.9927
2026-03-14 09:15:07.510,1.5555,0.1765,9.3782
2026-03-14 09:15:07.520,1.3716,-0.167,9.1313
2026-03-14 09:15:07.530,1.1415,0.2574,9.1912
2026-03-14 09:15:07.540,1.1001,-0.0486,9.3711
2026-03-14 09:15:07.550,0.8687,-0.1613,9.3401
2026-03-14 09:15:07.560,1.042,-0.0859,9.5265
2026-03-14 09:15:07.570,0.825,0.0334,9.7543
2026-03-14 09:15:07.580,0.4473,-0.0141,9.7743
2026-03-14 09:15:07.590,0.7627,0.0398,9.8855
2026-03-14 09:15:07.600,0.6742,0.0799,9.5067
2026-03-14 09:15:07.610,0.4342,0.2512,9.4557
2026-03-14 09:15:07.620,0.3234,0.2987,9.6399
2026-03-14 09:15:07.630,0.2183,0.2197,9.9265
2026-03-14 09:15:07.640,-0.0988,0.197,10.0828
2026-03-14 09:15:07.650,-0.0502,0.1519,10.3479
2026-03-14 09:15:07.660,-0.1764,0.2374,10.0847
2026-03-14 09:15:07.670,-0.6177,0.2374,10.0162
2026-03-14 09:15:07.680,-0.5791,0.3333,9.9805
2026-03-14 09:15:07.690,-0.8221,-0.0399,9.7532
2026-03-14 09:15:07.700,-0.4034,0.1768,9.6237
2026-03-14 09:15:07.710,-1.1292,0.142,9.6703
2026-03-14 09:15:07.720,-1.3456,-0.1553,10.224
2026-03-14 09:15:07.730,-1.2691,-0.2691,9.9896
2026-03-14 09:15:07.740,-1.4732,-0.7237,10.3096
2026-03-14 09:15:07.750,-1.6707,-0.7834,9.9236
2026-03-14 09:15:07.760,-1.1732,-1.025,9.8117
2026-03-14 09:15:07.770,-1.4323,-1.3097,9.671
2026-03-14 09:15:07.780,-1.7098,-1.1277,9.8831
2026-03-14 09:15:07.790,-1.4792,-1.4074,9.144
2026-03-14 09:15:07.800,-1.3934,-1.0845,9.3216
2026-03-14 09:15:07.810,-1.1801,-0.8269,9.4655
2026-03-14 09:15:07.820,-1.4503,-1.1999,9.6601
2026-03-14 09:15:07.830,-1.3588,-0.9896,9.6389
2026-03-14 09:15:07.840,-1.0274,-0.7355,10.109
2026-03-14 09:15:07.850,-0.8451,-0.981,9.9471
2026-03-14 09:15:07.860,-0.5827,-0.4578,9.3355
2026-03-14 09:15:07.870,-0.1941,-0.2384,9.6457
2026-03-14 09:15:07.880,-0.3418,-0.1796,9.2744
2026-03-14 09:15:07.890,-0.1139,-0.1229,9.5794
2026-03-14 09:15:07.900,0.2548,0.2256,9.71
2026-03-14 09:15:07.910,0.4883,0.5929,10.2164
2026-03-14 09:15:07.920,0.6244,0.7721,10.1788
2026-03-14 09:15:07.930,0.6448,0.8489,10.3692
2026-03-14 09:15:07.940,0.7581,0.8157,10.1404
2026-03-14 09:15:07.950,0.9852,0.9269,10.3946
2026-03-14 09:15:07.960,1.0795,1.0708,10.3652
2026-03-14 09:15:07.970,1.2225,1.0896,9.5778
2026-03-14 09:15:07.980,1.3675,0.6853,9.8056
2026-03-14 09:15:07.990,1.3293,0.9533,9.9231
2026-03-14 09:15:08.000,1.3551,0.7656,9.7263
2026-03-14 09:15:08.010,1.5065,0.7083,9.9041
2026-03-14 09:15:08.020,1.5292,0.6009,10.2177
2026-03-14 09:15:08.030,1.3554,0.5406,10.6134
2026-03-14 09:15:08.040,0.9888,0.3793,9.497
2026-03-14 09:15:08.050,1.222,0.1222,9.5231
2026-03-14 09:15:08.060,1.3374,0.3444,9.375
2026-03-14 09:15:08.070,1.0663,-0.0006,9.3441
2026-03-14 09:15:08.080,1.0251,-0.0359,9.2823
2026-03-14 09:15:08.090,0.947,0.0317,9.7079
2026-03-14 09:15:08.100,0.6435,-0.0497,9.8962
2026-03-14 09:15:08.110,0.6583,-0.1439,
2026-03-14 09:15:08.120,0.4262,-0.1428,9.8226
2026-03-14 09:15:08.130,0.2621,0.1114,9.8337
2026-03-14 09:15:08.140,0.4205,0.3681,10.0783
2026-03-14 09:15:08.150,-0.0823,0.0307,9.6285
2026-03-14 09:15:08.160,-0.1303,0.6475,9.263
2026-03-14 09:15:08.170,0.0885,0.4768,
2026-03-14 09:15:08.180,-0.2315,0.4178,9.8797
2026-03-14 09:15:08.190,-0.4719,0.4982,9.847
2026-03-14 09:15:08.200,-0.5414,0.3179,10.2705
2026-03-14 09:15:08.210,-0.7493,0.2498,10.3191
2026-03-14 09:15:08.220,-0.8983,0.2919,10.3056
2026-03-14 09:15:08.230,-0.9582,-0.1382,9.9473
2026-03-14 09:15:08.240,-0.9985,-0.255,9.7126
2026-03-14 09:15:08.250,-0.9189,-0.188,9.8344
2026-03-14 09:15:08.260,-1.252,-0.2954,9.4442
2026-03-14 09:15:08.270,-1.6113,-0.9183,9.6687
2026-03-14 09:15:08.280,-1.6348,-0.9949,10.0238
2026-03-14 09:15:08.290,-1.629,-0.8648,10.2131
2026-03-14 09:15:08.300,-1.5991,-0.832,10.1953
2026-03-14 09:15:08.310,-1.7423,-0.937,9.7637
2026-03-14 09:15:08.320,-1.6037,-1.2259,9.3034
2026-03-14 09:15:08.330,-1.4088,-1.1829,9.2903
2026-03-14 09:15:08.340,-1.3092,,9.234
2026-03-14 09:15:08.350,-1.3422,-1.1552,9.6592
2026-03-14 09:15:08.360,-1.0806,-1.0855,9.4718
2026-03-14 09:15:08.370,-1.2586,-0.8978,9.5345
2026-03-14 09:15:08.380,-0.7901,-0.5334,9.8684
2026-03-14 09:15:08.390,-0.5847,-0.3222,10.0669
2026-03-14 09:15:08.400,-0.5738,-0.0014,10.0131
2026-03-14 09:15:08.410,-0.1348,0.1951,9.9125
2026-03-14 09:15:08.420,-0.0076,0.1838,9.9235
2026-03-14 09:15:08.430,0.3899,0.6608,9.6851
2026-03-14 09:15:08.440,0.4362,0.8506,9.7301
2026-03-14 09:15:08.450,0.3058,1.0048,9.6619
2026-03-14 09:15:08.460,0.8294,0.9098,10.2958
2026-03-14 09:15:08.470,1.1646,0.9477,10.3448
2026-03-14 09:15:08.480,0.883,1.0253,10.2537
2026-03-14 09:15:08.490,1.1169,1.1722,9.7788
2026-03-14 09:15:08.500,1.2828,0.949,9.8743
2026-03-14 09:15:08.510,1.3713,1.178,10.2064
2026-03-14 09:15:08.520,1.453,0.8026,9.4195
2026-03-14 09:15:08.530,1.4684,0.7638,9.9031
2026-03-14 09:15:08.540,1.5022,0.7199,9.6827
2026-03-14 09:15:08.550,1.1651,0.518,9.8756
2026-03-14 09:15:08.560,1.2929,0.1981,10.3646
2026-03-14 09:15:08.570,1.1959,0.4801,10.1297
2026-03-14 09:15:08.580,1.06,0.1942,9.7062
2026-03-14 09:15:08.590,0.6086,0.0196,9.762
2026-03-14 09:15:08.600,1.0766,-0.0894,9.4251
2026-03-14 09:15:08.610,0.7981,-0.0531,9.3945
2026-03-14 09:15:08.620,0.8954,-0.2235,9.2891
2026-03-14 09:15:08.630,0.6221,-0.1925,9.7218
2026-03-14 09:15:08.640,0.3872,0.0373,9.8496
2026-03-14 09:15:08.650,0.7161,-0.2493,9.8734
2026-03-14 09:15:08.660,0.528,0.0259,10.1984
2026-03-14 09:15:08.670,0.3211,-0.0036,9.6301
2026-03-14 09:15:08.680,-0.0037,0.2277,9.5483
2026-03-14 09:15:08.690,0.3453,0.4444,9.9209
2026-03-14 09:15:08.700,-0.138,0.3416,9.7536
2026-03-14 09:15:08.710,-0.2614,0.4128,9.5018
2026-03-14 09:15:08.720,-0.3599,,10.0901
2026-03-14 09:15:08.730,-0.4447,0.2535,10.082
2026-03-14 09:15:08.740,-0.5875,0.317,10.0984
2026-03-14 09:15:08.750,-0.7646,-0.0566,10.375
2026-03-14 09:15:08.760,-0.9707,-0.0752,10.1953
2026-03-14 09:15:08.770,-1.1536,-0.0649,10.146
2026-03-14 09:15:08.780,-1.3145,-0.2415,9.6646
2026-03-14 09:15:08.790,-1.1482,-0.6046,9.6433
2026-03-14 09:15:08.800,-1.0951,-0.6468,9.7871
2026-03-14 09:15:08.810,-1.55,-0.9501,9.6941
2026-03-14 09:15:08.820,-1.3843,-0.8023,9.6011
2026-03-14 09:15:08.830,-1.7414,-0.9173,9.7261
2026-03-14 09:15:08.840,-1.254,-1.0433,9.9458
2026-03-14 09:15:08.850,-1.3764,-1.236,9.8282
2026-03-14 09:15:08.860,-1.4507,-1.2781,9.6321
2026-03-14 09:15:08.870,-1.5886,-1.156,9.1843
2026-03-14 09:15:08.880,-1.3017,-1.4485,9.6856
2026-03-14 09:15:08.890,-0.8109,-0.9117,9.4391
2026-03-14 09:15:08.900,-0.8881,-0.8286,9.292
2026-03-14 09:15:08.910,-0.6109,-0.305,9.7026
2026-03-14 09:15:08.920,-0.3691,-0.4149,9.3767
2026-03-14 09:15:08.930,-0.1793,-0.0719,9.7706
2026-03-14 09:15:08.940,-0.0967,,10.3052
2026-03-14 09:15:08.950,0.2086,0.3821,10.2085
2026-03-14 09:15:08.960,0.1566,0.5236,10.2078
2026-03-14 09:15:08.970,0.5649,0.6278,9.7474
2026-03-14 09:15:08.980,0.8326,0.6873,9.8034
2026-03-14 09:15:08.990,0.9267,0.8596,9.9357
2026-03-14 09:15:09.000,1.0872,0.8516,10.0534
2026-03-14 09:15:09.010,1.0266,1.0153,10.208
2026-03-14 09:15:09.020,1.1954,0.9263,10.7102
2026-03-14 09:15:09.030,1.3668,0.9803,9.7733
2026-03-14 09:15:09.040,1.3898,0.9891,10.1387
2026-03-14 09:15:09.050,1.3726,0.9658,9.5652
2026-03-14 09:15:09.060,1.6066,0.5413,9.6587
2026-03-14 09:15:09.070,1.3941,0.5653,9.5276
2026-03-14 09:15:09.080,1.4032,0.4268,9.2935
2026-03-14 09:15:09.090,1.5157,0.1352,9.4771
2026-03-14 09:15:09.100,1.318,0.1776,9.6488
2026-03-14 09:15:09.110,1.0743,0.0118,9.9183
2026-03-14 09:15:09.120,1.2206,-0.1315,10.0621
2026-03-14 09:15:09.130,1.0448,0.0836,9.8005
2026-03-14 09:15:09.140,0.8546,0.1318,9.6403
2026-03-14 09:15:09.150,0.6206,-0.2709,9.4357
2026-03-14 09:15:09.160,0.6952,0.1586,9.3899
2026-03-14 09:15:09.170,0.7007,0.1574,9.3444
2026-03-14 09:15:09.180,0.4095,-0.091,9.6454
2026-03-14 09:15:09.190,0.3524,0.0585,10.2142
2026-03-14 09:15:09.200,0.2409,0.1529,9.8952
2026-03-14 09:15:09.210,0.0622,0.2127,10.0295
2026-03-14 09:15:09.220,-0.0282,0.1974,9.4943
2026-03-14 09:15:09.230,-0.2691,0.3245,10.1558
2026-03-14 09:15:09.240,-0.6348,0.4923,9.8383
2026-03-14 09:15:09.250,-0.5466,0.2199,9.764
2026-03-14 09:15:09.260,-0.4984,0.2399,9.7368
2026-03-14 09:15:09.270,-0.6623,0.1887,9.8996
2026-03-14 09:15:09.280,-0.8358,-0.0181,9.8818
2026-03-14 09:15:09.290,-0.7918,-0.1784,10.2403
2026-03-14 09:15:09.300,-1.2342,-0.2758,10.0388
2026-03-14 09:15:09.310,-1.1136,-0.5085,10.203
2026-03-14 09:15:09.320,-1.4427,-0.3886,9.5915
2026-03-14 09:15:09.330,-1.3443,-0.8484,10.115
2026-03-14 09:15:09.340,-1.5323,-0.8261,9.2698
2026-03-14 09:15:09.350,-1.5861,-0.7278,9.2619
2026-03-14 09:15:09.360,-1.7871,-1.1614,9.628
2026-03-14 09:15:09.370,-1.1944,-1.2059,9.5127
2026-03-14 09:15:09.380,-1.7044,-1.2668,9.5426
2026-03-14 09:15:09.390,-1.3415,-1.1495,9.7206
2026-03-14 09:15:09.400,-1.3425,-1.3814,9.8433
2026-03-14 09:15:09.410,-1.2282,-0.8499,9.3518
2026-03-14 09:15:09.420,-1.0048,-0.8656,9.5419
2026-03-14 09:15:09.430,-1.0265,-0.8128,9.3208
2026-03-14 09:15:09.440,-0.8217,-0.4039,9.3566
2026-03-14 09:15:09.450,-0.5265,-0.235,9.8252
2026-03-14 09:15:09.460,-0.2645,-0.2979,10.0236
2026-03-14 09:15:09.470,-0.1019,0.2481,9.8487
2026-03-14 09:15:09.480,0.3344,0.2816,10.3246
2026-03-14 09:15:09.490,0.4211,0.5536,10.2184
2026-03-14 09:15:09.500,0.9035,0.6967,9.9383
2026-03-14 09:15:09.510,0.9097,0.6943,9.9821
2026-03-14 09:15:09.520,0.6494,1.0488,9.4694
2026-03-14 09:15:09.530,1.0705,0.9221,9.538
2026-03-14 09:15:09.540,1.4305,1.0925,10.3994
2026-03-14 09:15:09.550,1.4387,0.9455,10.4918
2026-03-14 09:15:09.560,1.5182,0.9281,9.9581
2026-03-14 09:15:09.570,1.3411,0.5768,9.8575
2026-03-14 09:15:09.580,1.2331,0.9262,10.167
2026-03-14 09:15:09.590,1.3392,0.7793,9.7917
2026-03-14 09:15:09.600,1.283,0.3716,9.7664
2026-03-14 09:15:09.610,1.4971,0.5177,9.4541
2026-03-14 09:15:09.620,0.944,0.4709,8.9205
2026-03-14 09:15:09.630,0.8292,0.4449,9.2724
2026-03-14 09:15:09.640,1.1883,0.1988,9.5365
2026-03-14 09:15:09.650,0.9732,0.0397,9.6255
2026-03-14 09:15:09.660,0.8033,-0.0904,9.7984
2026-03-14 09:15:09.670,0.6284,-0.0287,9.4853
2026-03-14 09:15:09.680,0.7305,-0.0705,9.5028
2026-03-14 09:15:09.690,0.7558,-0.0109,9.7857
2026-03-14 09:15:09.700,0.1717,0.3104,8.9098
2026-03-14 09:15:09.710,0.3594,0.3093,9.4183
2026-03-14 09:15:09.720,0.1601,0.5563,9.8251
2026-03-14 09:15:09.730,0.5321,0.1262,9.6442
2026-03-14 09:15:09.740,0.189,-0.0299,9.8841
2026-03-14 09:15:09.750,-0.4766,0.4581,9.8965
2026-03-14 09:15:09.760,-0.4272,0.0062,10.0009
2026-03-14 09:15:09.770,-0.5659,0.3599,10.2014
2026-03-14 09:15:09.780,-0.5899,0.2602,9.8594
2026-03-14 09:15:09.790,-0.6833,0.238,9.4963
2026-03-14 09:15:09.800,-1.0259,0.0173,9.581
2026-03-14 09:15:09.810,-0.8796,-0.2854,10.0708
2026-03-14 09:15:09.820,-1.2556,0.0371,10.0015
2026-03-14 09:15:09.830,-0.8204,-0.3378,9.8776
2026-03-14 09:15:09.840,-1.0549,-0.4899,10.3771
2026-03-14 09:15:09.850,-1.3522,-0.5099,9.8832
2026-03-14 09:15:09.860,-1.3386,-0.869,9.7062
2026-03-14 09:15:09.870,-1.5205,-1.1627,9.4659
2026-03-14 09:15:09.880,-1.6744,-1.0351,9.4626
2026-03-14 09:15:09.890,-1.7129,-1.1272,9.2059
2026-03-14 09:15:09.900,-1.5867,-1.0176,9.4761
2026-03-14 09:15:09.910,-1.4675,-1.0594,9.6182
2026-03-14 09:15:09.920,-1.2688,-1.1349,9.7148
2026-03-14 09:15:09.930,-1.3662,-0.9784,10.07
2026-03-14 09:15:09.940,-1.0454,-0.9047,9.9316
2026-03-14 09:15:09.950,-0.8744,-1.0683,10.0437
2026-03-14 09:15:09.960,-0.8457,-0.4982,9.1158
2026-03-14 09:15:09.970,-0.5348,-0.0812,9.3848
2026-03-14 09:15:09.980,-0.5273,-0.3192,9.6335
2026-03-14 09:15:09.990,-0.198,0.0435,10.3399
2026-03-14 09:15:10.000,-0.0944,0.3501,10.0705
2026-03-14 09:15:10.010,0.2461,0.2357,10.1382
2026-03-14 09:15:10.020,0.5687,0.4494,10.3328
2026-03-14 09:15:10.030,0.7355,0.7217,10.0035
2026-03-14 09:15:10.040,0.6383,0.7564,9.7655
2026-03-14 09:15:10.050,1.0983,1.1532,10.0178
2026-03-14 09:15:10.060,1.3989,0.9869,9.7661
2026-03-14 09:15:10.070,1.2797,1.2068,9.7257
2026-03-14 09:15:10.080,1.3312,0.9065,9.8257
2026-03-14 09:15:10.090,1.4073,1.2002,9.7198
2026-03-14 09:15:10.100,1.3118,0.9633,9.7289
2026-03-14 09:15:10.110,1.2295,0.8588,10.2681
2026-03-14 09:15:10.120,1.231,0.672,10.198
2026-03-14 09:15:10.130,1.2208,0.5845,9.734
2026-03-14 09:15:10.140,1.0778,0.4325,9.4561
2026-03-14 09:15:10.150,1.2331,0.2556,9.347
2026-03-14 09:15:10.160,1.2946,0.1399,9.2731
2026-03-14 09:15:10.170,1.2003,-0.0378,
2026-03-14 09:15:10.180,0.9886,-0.0331,9.3503
2026-03-14 09:15:10.190,0.9197,0.1052,9.176
2026-03-14 09:15:10.200,0.6855,-0.1493,9.6868
2026-03-14 09:15:10.210,0.8653,-0.1305,10.2008
2026-03-14 09:15:10.220,0.6139,-0.2597,9.8394
2026-03-14 09:15:10.230,0.3807,-0.3145,9.6965
2026-03-14 09:15:10.240,0.4875,0.0225,9.4068
2026-03-14 09:15:10.250,0.2359,0.1029,9.3376
2026-03-14 09:15:10.260,0.2187,0.4865,9.4735
2026-03-14 09:15:10.270,-0.2201,0.0137,9.7809
2026-03-14 09:15:10.280,0.0223,0.0842,10.2802
2026-03-14 09:15:10.290,-0.2118,0.3521,10.1984
2026-03-14 09:15:10.300,-0.3339,0.4064,10.0937
2026-03-14 09:15:10.310,-0.3839,0.2017,10.3034
2026-03-14 09:15:10.320,-0.6957,0.1954,9.8716
2026-03-14 09:15:10.330,-1.1967,-0.1028,9.8181
2026-03-14 09:15:10.340,-0.6815,-0.2791,9.6275
2026-03-14 09:15:10.350,-0.9024,-0.2677,9.5526
2026-03-14 09:15:10.360,-1.287,-0.3519,9.7568
2026-03-14 09:15:10.370,-1.294,-0.5314,10.0476
2026-03-14 09:15:10.380,-1.3172,-0.8566,10.0956
2026-03-14 09:15:10.390,-1.5682,-0.917,9.973
2026-03-14 09:15:10.400,-1.2888,-1.1405,9.7768
2026-03-14 09:15:10.410,-1.4556,-0.9832,9.6415
2026-03-14 09:15:10.420,-1.1445,-0.8377,9.5859
2026-03-14 09:15:10.430,-1.6117,-1.5128,9.1795
2026-03-14 09:15:10.440,-1.2546,-1.1947,9.2293
2026-03-14 09:15:10.450,-1.4397,-1.1335,9.1249
2026-03-14 09:15:10.460,-1.3275,-1.0519,9.3584
2026-03-14 09:15:10.470,-0.8798,-0.9067,9.8223
2026-03-14 09:15:10.480,-0.823,-0.7224,9.6782
2026-03-14 09:15:10.490,-0.621,-0.4649,10.0196
2026-03-14 09:15:10.500,-0.621,-0.1873,9.9112
2026-03-14 09:15:10.510,-0.1651,-0.1591,
2026-03-14 09:15:10.520,-0.0412,0.1233,9.7692
2026-03-14 09:15:10.530,0.0258,0.4147,9.7061
2026-03-14 09:15:10.540,0.1243,0.4169,10.0293
2026-03-14 09:15:10.550,0.3629,,9.7946
2026-03-14 09:15:10.560,0.4151,0.8855,10.6641
2026-03-14 09:15:10.570,0.8691,0.9281,10.3357
2026-03-14 09:15:10.580,1.0256,1.2801,9.9567
2026-03-14 09:15:10.590,1.2482,1.2464,10.3748
2026-03-14 09:15:10.600,1.4385,1.1074,9.6107
2026-03-14 09:15:10.610,0.9997,0.7681,10.059
2026-03-14 09:15:10.620,,0.9881,9.5624
2026-03-14 09:15:10.630,1.5321,0.8659,9.6575
2026-03-14 09:15:10.640,1.2097,0.6912,9.8953
2026-03-14 09:15:10.650,1.4687,0.7447,9.8613
2026-03-14 09:15:10.660,1.2892,0.5007,10.0196
2026-03-14 09:15:10.670,1.4603,0.0568,9.6912
2026-03-14 09:15:10.680,1.3142,0.1858,9.391
2026-03-14 09:15:10.690,1.2859,0.0375,9.573
2026-03-14 09:15:10.700,1.091,-0.0736,8.9197
2026-03-14 09:15:10.710,1.06,-0.0794,9.3762
2026-03-14 09:15:10.720,0.7493,-0.2633,9.2392
2026-03-14 09:15:10.730,0.8372,-0.1193,9.5159
2026-03-14 09:15:10.740,0.7645,0.0154,9.6109
2026-03-14 09:15:10.750,,-0.2685,9.9923
2026-03-14 09:15:10.760,0.4525,0.1718,9.8434
2026-03-14 09:15:10.770,0.4101,,9.6692
2026-03-14 09:15:10.780,0.0087,0.2663,9.6932
2026-03-14 09:15:10.790,0.1615,0.1024,9.4584
2026-03-14 09:15:10.800,-0.039,0.3912,9.6799
2026-03-14 09:15:10.810,-0.2801,0.2863,9.982
2026-03-14 09:15:10.820,,0.4003,9.8876
2026-03-14 09:15:10.830,-0.5526,0.3862,9.9711
2026-03-14 09:15:10.840,-0.4603,0.3671,10.5369
2026-03-14 09:15:10.850,-0.8482,-0.0966,10.3999
2026-03-14 09:15:10.860,-0.8836,0.1396,10.1399
2026-03-14 09:15:10.870,-0.7569,-0.0236,9.6195
2026-03-14 09:15:10.880,-1.2337,-0.3513,9.9362
2026-03-14 09:15:10.890,-1.2733,-0.2213,9.5822
2026-03-14 09:15:10.900,-1.2798,-0.4624,9.4605
2026-03-14 09:15:10.910,-1.1766,-0.7749,9.5344
2026-03-14 09:15:10.920,-1.5583,-1.0475,10.0952
2026-03-14 09:15:10.930,-1.7407,-0.7308,9.9332
2026-03-14 09:15:10.940,-1.449,-1.2234,9.8064
2026-03-14 09:15:10.950,-1.345,-1.4711,9.6569
2026-03-14 09:15:10.960,-1.5033,-1.1007,9.5649
2026-03-14 09:15:10.970,-1.5268,-1.2147,9.6496
2026-03-14 09:15:10.980,-1.2937,-1.0609,8.8298
2026-03-14 09:15:10.990,-1.1152,-1.1629,9.5164
2026-03-14 09:15:11.000,-0.9995,-0.9955,9.9796
2026-03-14 09:15:11.010,-0.7889,-0.5875,10.0701
2026-03-14 09:15:11.020,-0.509,-0.6325,9.9214
2026-03-14 09:15:11.030,-0.1477,-0.0683,10.1697
2026-03-14 09:15:11.040,-0.0683,0.0251,9.8859
2026-03-14 09:15:11.050,-0.0198,0.1847,9.5553
2026-03-14 09:15:11.060,0.2116,0.4849,9.717
2026-03-14 09:15:11.070,0.4829,0.5437,10.0339
2026-03-14 09:15:11.080,0.681,0.8904,9.7656
2026-03-14 09:15:11.090,0.8153,0.7341,10.0823
2026-03-14 09:15:11.100,0.8563,0.8851,10.5458
2026-03-14 09:15:11.110,1.3713,1.0998,
2026-03-14 09:15:11.120,1.3851,1.1613,10.3594
2026-03-14 09:15:11.130,1.2999,0.9944,10.5926
2026-03-14 09:15:11.140,1.221,0.9551,9.991
2026-03-14 09:15:11.150,1.499,0.7833,9.7804
2026-03-14 09:15:11.160,1.2786,0.7141,9.5874
2026-03-14 09:15:11.170,1.2973,0.5784,9.717
2026-03-14 09:15:11.180,1.2105,0.6199,9.526
2026-03-14 09:15:11.190,1.1921,0.3613,9.9091
2026-03-14 09:15:11.200,1.3666,0.0608,9.8559
2026-03-14 09:15:11.210,1.3854,0.2727,9.6215
2026-03-14 09:15:11.220,0.9326,0.2941,9.6466
2026-03-14 09:15:11.230,1.0325,-0.1776,9.8107
2026-03-14 09:15:11.240,0.8923,-0.0932,9.4117
2026-03-14 09:15:11.250,0.8719,-0.0139,9.1931
2026-03-14 09:15:11.260,0.7534,-0.0774,9.4655
2026-03-14 09:15:11.270,0.2588,-0.184,9.7114
2026-03-14 09:15:11.280,0.6179,-0.1442,9.6438
2026-03-14 09:15:11.290,0.3268,0.0261,10.0444
2026-03-14 09:15:11.300,0.3,0.0225,10.0297
2026-03-14 09:15:11.310,0.2428,0.1615,9.799
2026-03-14 09:15:11.320,-0.1091,0.2576,9.9506
2026-03-14 09:15:11.330,-0.0852,0.3178,10.0142
2026-03-14 09:15:11.340,-0.1493,0.275,9.5828
2026-03-14 09:15:11.350,-0.2995,0.267,9.8825
2026-03-14 09:15:11.360,-0.1084,-0.096,9.7717
2026-03-14 09:15:11.370,-0.7907,0.1073,9.9944
2026-03-14 09:15:11.380,-0.7426,0.0365,
2026-03-14 09:15:11.390,-1.1099,-0.1653,10.2187
2026-03-14 09:15:11.400,-1.0173,-0.3062,10.1846
2026-03-14 09:15:11.410,-1.1882,-0.2822,9.6596
2026-03-14 09:15:11.420,-1.0574,-0.6333,9.8026
2026-03-14 09:15:11.430,-1.337,-0.8377,9.6717
2026-03-14 09:15:11.440,-1.6217,-0.7488,9.8745
2026-03-14 09:15:11.450,-1.196,-0.9918,9.88
2026-03-14 09:15:11.460,-1.5331,-1.1863,9.9964
2026-03-14 09:15:11.470,-1.6796,-0.886,9.9238
2026-03-14 09:15:11.480,-1.4352,-1.1659,9.6187
2026-03-14 09:15:11.490,-1.2339,-1.1576,9.4447
2026-03-14 09:15:11.500,-1.0999,-1.0013,9.5697
2026-03-14 09:15:11.510,-1.2643,-1.1359,9.3735
2026-03-14 09:15:11.520,-1.117,-1.0901,9.6257
2026-03-14 09:15:11.530,-0.8329,-0.8284,9.1835
2026-03-14 09:15:11.540,-0.7326,-0.9333,9.9001
2026-03-14 09:15:11.550,-0.7282,-0.3441,9.5663
2026-03-14 09:15:11.560,-0.4209,-0.3084,9.7065
2026-03-14 09:15:11.570,-0.1592,0.1584,10.1558
2026-03-14 09:15:11.580,-0.18,0.1106,10.0919
2026-03-14 09:15:11.590,0.3172,0.3733,9.9799
2026-03-14 09:15:11.600,0.3842,0.9452,9.9243
2026-03-14 09:15:11.610,0.5983,1.0151,9.5605
2026-03-14 09:15:11.620,0.8229,0.8006,10.0359
2026-03-14 09:15:11.630,1.0619,0.9249,9.8985
2026-03-14 09:15:11.640,1.3265,0.8238,10.2615
2026-03-14 09:15:11.650,1.2273,0.8633,10.3047
2026-03-14 09:15:11.660,1.2712,0.9202,10.0622
2026-03-14 09:15:11.670,1.4681,1.1404,10.1108
2026-03-14 09:15:11.680,1.184,0.6366,10.1477
2026-03-14 09:15:11.690,1.2554,0.5967,10.0424
2026-03-14 09:15:11.700,1.4083,0.6068,9.4115
2026-03-14 09:15:11.710,1.4592,0.6865,9.5502
2026-03-14 09:15:11.720,1.055,0.4533,9.3703
2026-03-14 09:15:11.730,0.9676,0.3071,9.7762
2026-03-14 09:15:11.740,0.9954,-0.0256,10.0293
2026-03-14 09:15:11.750,1.2379,0.1598,9.7469
2026-03-14 09:15:11.760,1.3053,-0.2083,9.6373
2026-03-14 09:15:11.770,1.0729,0.0485,9.9462
2026-03-14 09:15:11.780,0.6815,0.2287,9.2975
2026-03-14 09:15:11.790,0.7219,-0.2033,9.4132
2026-03-14 09:15:11.800,0.5225,-0.1412,9.5734
2026-03-14 09:15:11.810,0.54,0.0097,9.6161
2026-03-14 09:15:11.820,0.2171,-0.0198,10.1135
2026-03-14 09:15:11.830,0.2302,0.1102,9.8326
2026-03-14 09:15:11.840,0.033,0.2426,10.2643
2026-03-14 09:15:11.850,0.0485,0.1872,10.2728
2026-03-14 09:15:11.860,-0.4231,0.3401,9.7481
2026-03-14 09:15:11.870,-0.171,0.3374,10.1326
2026-03-14 09:15:11.880,-0.598,0.3619,9.9287
2026-03-14 09:15:11.890,-0.6378,0.1594,
2026-03-14 09:15:11.900,-0.6095,0.0182,9.5975
2026-03-14 09:15:11.910,,0.1554,9.8899
2026-03-14 09:15:11.920,-0.8473,-0.265,10.2893
2026-03-14 09:15:11.930,-1.1475,-0.3323,10.0435
2026-03-14 09:15:11.940,-1.3804,-0.4632,10.2907
2026-03-14 09:15:11.950,-1.4618,-0.3805,10.0142
2026-03-14 09:15:11.960,-1.4935,-0.629,9.7742
2026-03-14 09:15:11.970,-1.4689,-0.8439,9.5285
2026-03-14 09:15:11.980,-1.5807,-0.8707,9.6583
2026-03-14 09:15:11.990,-1.4047,-1.2577,9.4128
2026-03-14 09:15:12.000,-1.6817,-1.374,9.688
2026-03-14 09:15:12.010,-1.587,-1.1793,9.8064
2026-03-14 09:15:12.020,-1.4604,-0.978,10.1142
2026-03-14 09:15:12.030,-1.3695,-1.2442,9.5163
2026-03-14 09:15:12.040,-1.2961,-1.0994,9.5848
2026-03-14 09:15:12.050,-0.9437,-0.8752,
2026-03-14 09:15:12.060,-0.5966,-0.9252,9.3684
2026-03-14 09:15:12.070,-0.6405,-0.6173,9.5691
2026-03-14 09:15:12.080,-0.362,-0.3462,9.5573
2026-03-14 09:15:12.090,-0.2188,-0.2158,
2026-03-14 09:15:12.100,-0.2162,0.1409,10.0858
2026-03-14 09:15:12.110,0.2076,-0.0076,10.0936
2026-03-14 09:15:12.120,0.5199,0.4148,10.2975
2026-03-14 09:15:12.130,0.6076,0.5224,9.9344
2026-03-14 09:15:12.140,0.8128,0.8393,9.677
2026-03-14 09:15:12.150,0.9452,0.7484,9.7824
2026-03-14 09:15:12.160,1.0508,1.0178,9.6172
2026-03-14 09:15:12.170,1.3863,0.8028,9.7579
2026-03-14 09:15:12.180,1.4533,1.2102,9.8708
2026-03-14 09:15:12.190,1.3324,0.9203,10.3396
2026-03-14 09:15:12.200,1.1511,0.9049,10.2005
2026-03-14 09:15:12.210,1.3338,1.0639,9.9191
2026-03-14 09:15:12.220,1.4751,0.5447,10.0242
2026-03-14 09:15:12.230,1.476,0.6048,9.9129
2026-03-14 09:15:12.240,1.6793,0.063,9.4608
2026-03-14 09:15:12.250,1.0043,0.2119,9.423
2026-03-14 09:15:12.260,1.1478,-0.0003,9.3184
2026-03-14 09:15:12.270,1.0901,0.118,9.4213
2026-03-14 09:15:12.280,1.1348,0.0583,9.4854
2026-03-14 09:15:12.290,0.703,-0.1609,9.8388
2026-03-14 09:15:12.300,0.789,0.3024,9.8623
2026-03-14 09:15:12.310,0.6023,-0.0807,9.7015
2026-03-14 09:15:12.320,0.7955,-0.0769,10.0694
2026-03-14 09:15:12.330,0.4321,-0.1648,9.8487
2026-03-14 09:15:12.340,0.5473,-0.1431,9.6419
2026-03-14 09:15:12.350,0.625,0.3174,9.8778
2026-03-14 09:15:12.360,0.0742,0.0649,9.5576
2026-03-14 09:15:12.370,0.1744,0.0604,9.7589
2026-03-14 09:15:12.380,-0.1272,0.298,10.0542
2026-03-14 09:15:12.390,-0.5745,0.2569,10.302
2026-03-14 09:15:12.400,,0.4205,10.059
2026-03-14 09:15:12.410,-0.6256,0.2771,10.3346
2026-03-14 09:15:12.420,-0.6369,0.3651,
2026-03-14 09:15:12.430,-0.8072,0.0239,9.8265
2026-03-14 09:15:12.440,-0.9234,0.0407,9.7863
2026-03-14 09:15:12.450,-1.1383,-0.1839,9.9744
2026-03-14 09:15:12.460,-1.1187,-0.2857,9.9959
2026-03-14 09:15:12.470,-1.3164,-0.3616,10.1239
2026-03-14 09:15:12.480,-1.21,-0.4404,9.7336
2026-03-14 09:15:12.490,-1.5795,-0.9124,9.6213
2026-03-14 09:15:12.500,-1.4816,-0.8738,9.6284
2026-03-14 09:15:12.510,-1.393,-0.7506,9.5097
2026-03-14 09:15:12.520,-1.5853,-1.3502,9.4831
2026-03-14 09:15:12.530,-1.2326,-1.1454,9.4313
2026-03-14 09:15:12.540,-1.6206,-1.2141,9.5688
2026-03-14 09:15:12.550,-1.2731,-1.1672,9.8357
2026-03-14 09:15:12.560,-1.4652,-1.2247,9.8764
2026-03-14 09:15:12.570,-1.0012,-1.1434,10.0645
2026-03-14 09:15:12.580,-0.9815,-0.9789,9.4741
2026-03-14 09:15:12.590,-0.858,-0.5359,9.643
2026-03-14 09:15:12.600,-0.5738,-0.3452,9.7632
2026-03-14 09:15:12.610,-0.1848,-0.2596,9.8037
2026-03-14 09:15:12.620,-0.2045,-0.1835,9.6692
2026-03-14 09:15:12.630,-0.0368,0.2902,9.9534
2026-03-14 09:15:12.640,0.1573,0.316,10.1891
2026-03-14 09:15:12.650,0.5267,0.8176,10.1267
2026-03-14 09:15:12.660,0.7213,0.7189,9.9516
2026-03-14 09:15:12.670,0.6933,0.8932,10.4168
2026-03-14 09:15:12.680,1.0612,0.8606,10.1761
2026-03-14 09:15:12.690,1.0715,0.8162,9.6424
2026-03-14 09:15:12.700,1.1554,1.1951,9.5236
2026-03-14 09:15:12.710,1.3362,0.7995,9.6977
2026-03-14 09:15:12.720,1.5601,1.1006,9.9823
2026-03-14 09:15:12.730,1.2045,0.7783,10.0791
2026-03-14 09:15:12.740,1.3978,0.5308,10.2822
2026-03-14 09:15:12.750,1.182,0.5766,10.0858
2026-03-14 09:15:12.760,1.3165,0.4371,9.9571
2026-03-14 09:15:12.770,1.2159,0.3881,9.4306
2026-03-14 09:15:12.780,1.3392,0.1908,9.7195
2026-03-14 09:15:12.790,,0.192,9.6689
2026-03-14 09:15:12.800,1.0105,0.0779,9.2169
2026-03-14 09:15:12.810,0.6652,0.1015,9.3381
2026-03-14 09:15:12.820,1.0709,-0.0916,9.6799
2026-03-14 09:15:12.830,0.6435,-0.2119,9.637
2026-03-14 09:15:12.840,0.5598,0.1874,9.8351
2026-03-14 09:15:12.850,0.7444,-0.0355,10.0751
2026-03-14 09:15:12.860,0.2847,0.0528,9.3454
2026-03-14 09:15:12.870,0.0343,0.1189,9.6669
2026-03-14 09:15:12.880,0.0774,,9.6389
2026-03-14 09:15:12.890,0.0317,-0.001,9.8562
2026-03-14 09:15:12.900,0.0712,0.5172,9.6954
2026-03-14 09:15:12.910,-0.0161,0.2073,9.7259
2026-03-14 09:15:12.920,-0.3845,0.2483,
2026-03-14 09:15:12.930,-0.5997,0.305,10.3021
2026-03-14 09:15:12.940,-0.5503,0.4249,10.2269
2026-03-14 09:15:12.950,-0.6165,0.1499,10.149
2026-03-14 09:15:12.960,-0.7964,0.1017,9.6946
2026-03-14 09:15:12.970,-0.83,-0.1885,9.5445
2026-03-14 09:15:12.980,-0.894,-0.2374,9.8847
2026-03-14 09:15:12.990,-1.245,-0.2912,9.7501
2026-03-14 09:15:13.000,-1.2648,-0.2821,9.9457
2026-03-14 09:15:13.010,-1.1068,-0.6245,9.8472
2026-03-14 09:15:13.020,-1.8341,-0.83,9.5635
2026-03-14 09:15:13.030,-1.4751,-0.8418,9.8816
2026-03-14 09:15:13.040,-1.4783,-1.0296,9.7273
2026-03-14 09:15:13.050,-1.6862,-1.1623,9.1032
2026-03-14 09:15:13.060,-1.4962,-1.2558,9.6379
2026-03-14 09:15:13.070,-1.281,-1.0522,9.19
2026-03-14 09:15:13.080,-1.3424,-1.1893,9.0339
2026-03-14 09:15:13.090,-1.1315,-0.9486,9.6456
2026-03-14 09:15:13.100,-0.9505,-1.134,9.7457
2026-03-14 09:15:13.110,-0.9331,-0.9007,10.0108
2026-03-14 09:15:13.120,-0.7318,-0.8088,9.8931
2026-03-14 09:15:13.130,-0.7585,-0.5168,9.7434
2026-03-14 09:15:13.140,-0.3037,-0.3812,9.5864
2026-03-14 09:15:13.150,-0.0198,0.2833,9.8726
2026-03-14 09:15:13.160,0.0555,0.117,9.5099
2026-03-14 09:15:13.170,0.3299,0.3472,9.5415
2026-03-14 09:15:13.180,0.4115,0.8033,9.9099
2026-03-14 09:15:13.190,0.5729,0.8226,10.0242
2026-03-14 09:15:13.200,0.9064,0.7567,10.3165
2026-03-14 09:15:13.210,0.8742,1.1704,10.2991
2026-03-14 09:15:13.220,1.0029,1.0071,10.4677
2026-03-14 09:15:13.230,1.4645,1.1301,9.8016
2026-03-14 09:15:13.240,,0.8866,9.956
2026-03-14 09:15:13.250,1.5988,0.9588,9.9499
2026-03-14 09:15:13.260,1.4219,0.8549,9.3585
2026-03-14 09:15:13.270,1.2261,0.7604,9.9026
2026-03-14 09:15:13.280,1.2013,0.4985,9.9182
2026-03-14 09:15:13.290,1.3382,0.5361,9.7959
2026-03-14 09:15:13.300,1.4212,0.6421,10.2153
2026-03-14 09:15:13.310,1.1721,0.0808,9.7472
2026-03-14 09:15:13.320,1.3121,0.2803,9.828
2026-03-14 09:15:13.330,0.9437,-0.0003,9.2759
2026-03-14 09:15:13.340,0.9062,-0.0691,9.33
2026-03-14 09:15:13.350,0.9844,0.0116,9.0418
2026-03-14 09:15:13.360,0.708,-0.2597,9.3933
2026-03-14 09:15:13.370,0.5535,-0.0267,9.6482
2026-03-14 09:15:13.380,0.6296,0.0428,9.6761
2026-03-14 09:15:13.390,0.4866,-0.2556,10.2168
2026-03-14 09:15:13.400,,0.2341,10.1394
2026-03-14 09:15:13.410,0.0774,0.0845,10.0743
2026-03-14 09:15:13.420,-0.0511,0.2808,9.52
2026-03-14 09:15:13.430,-0.0687,0.3515,9.5412
2026-03-14 09:15:13.440,-0.3673,-0.023,9.7302
2026-03-14 09:15:13.450,-0.4979,0.0733,10.058
2026-03-14 09:15:13.460,-0.4395,0.1022,10.1273
2026-03-14 09:15:13.470,-0.7094,0.2302,10.1789
2026-03-14 09:15:13.480,-0.6567,-0.0896,10.3911
2026-03-14 09:15:13.490,-0.9046,-0.1103,10.2384
2026-03-14 09:15:13.500,-0.9342,-0.189,9.934
2026-03-14 09:15:13.510,-0.9767,-0.3038,9.6865
2026-03-14 09:15:13.520,-1.044,-0.3503,9.508
2026-03-14 09:15:13.530,-1.239,-0.6917,9.2078
2026-03-14 09:15:13.540,-1.3402,-0.6746,9.3686
2026-03-14 09:15:13.550,-1.2321,-0.9676,10.0179
2026-03-14 09:15:13.560,-1.0703,-0.8676,10.1539
2026-03-14 09:15:13.570,-1.2956,-1.248,10.1374
2026-03-14 09:15:13.580,-1.4859,-1.2541,9.6676
2026-03-14 09:15:13.590,-1.3863,-0.9977,9.6963
2026-03-14 09:15:13.600,-1.237,-1.0761,9.2342
2026-03-14 09:15:13.610,-1.3701,-0.9263,8.9219
2026-03-14 09:15:13.620,-1.1452,-0.7619,9.3951
2026-03-14 09:15:13.630,-1.1437,-0.9367,9.373
2026-03-14 09:15:13.640,-0.9313,-0.7922,9.4113
2026-03-14 09:15:13.650,-0.5939,-0.7079,9.6596
2026-03-14 09:15:13.660,-0.6841,-0.1767,9.7071
2026-03-14 09:15:13.670,-0.0476,-0.1604,10.0132
2026-03-14 09:15:13.680,0.0994,0.3075,10.0122
2026-03-14 09:15:13.690,0.1709,0.4555,9.8318
2026-03-14 09:15:13.700,-0.0143,0.6365,9.3921
2026-03-14 09:15:13.710,0.6071,0.8835,9.6732
2026-03-14 09:15:13.720,0.8594,0.892,9.9662
2026-03-14 09:15:13.730,1.1419,0.9321,9.8189
2026-03-14 09:15:13.740,1.0623,1.0566,10.2094
2026-03-14 09:15:13.750,1.1669,1.4101,10.3563
2026-03-14 09:15:13.760,1.2732,0.8907,10.2999
2026-03-14 09:15:13.770,1.3652,0.6984,10.4989
2026-03-14 09:15:13.780,1.2183,0.8942,10.034
2026-03-14 09:15:13.790,1.3418,0.9671,9.6785
2026-03-14 09:15:13.800,1.5851,0.6907,9.9002
2026-03-14 09:15:13.810,1.4594,0.4092,9.2071
2026-03-14 09:15:13.820,1.2507,0.5971,9.6164
2026-03-14 09:15:13.830,1.0354,0.2692,10.0432
2026-03-14 09:15:13.840,1.0777,0.2316,9.6463
2026-03-14 09:15:13.850,1.0209,0.4401,9.9789
2026-03-14 09:15:13.860,0.7937,-0.0009,9.6518
2026-03-14 09:15:13.870,1.2357,0.0385,9.0874
2026-03-14 09:15:13.880,0.8934,-0.1692,9.063
2026-03-14 09:15:13.890,0.8169,-0.22,9.2257
2026-03-14 09:15:13.900,0.4184,0.0257,9.4788
2026-03-14 09:15:13.910,0.6455,0.269,9.4215
2026-03-14 09:15:13.920,0.1608,0.2607,9.6496
2026-03-14 09:15:13.930,0.2734,0.3069,10.0983
2026-03-14 09:15:13.940,0.0434,0.0101,10.0631
2026-03-14 09:15:13.950,0.2201,0.2028,10.4479
2026-03-14 09:15:13.960,-0.0948,-0.0668,9.835
2026-03-14 09:15:13.970,-0.3226,0.3221,10.0012
2026-03-14 09:15:13.980,-0.3243,0.0353,10.0826
2026-03-14 09:15:13.990,-0.5191,0.3729,10.0156
2026-03-14 09:15:14.000,-0.7314,0.1448,10.2869
2026-03-14 09:15:14.010,-0.8714,0.2846,10.2322
2026-03-14 09:15:14.020,-0.9515,0.1017,9.7848
2026-03-14 09:15:14.030,-1.2232,-0.3434,10.3689
2026-03-14 09:15:14.040,-1.1434,-0.1125,9.6913
2026-03-14 09:15:14.050,-1.13,-0.4949,9.9374
2026-03-14 09:15:14.060,-1.3102,-0.6155,9.8708
2026-03-14 09:15:14.070,-1.5164,-0.7642,9.6408
2026-03-14 09:15:14.080,-1.2801,-0.8816,9.4028
2026-03-14 09:15:14.090,-1.2526,-1.0774,9.573
2026-03-14 09:15:14.100,-1.177,-1.2856,9.7018
2026-03-14 09:15:14.110,-1.2984,-1.4194,9.8807
2026-03-14 09:15:14.120,,,9.9554
2026-03-14 09:15:14.130,-1.2884,-0.9298,9.7515
2026-03-14 09:15:14.140,-0.8418,-1.0757,9.5405
2026-03-14 09:15:14.150,-1.0107,-0.8945,9.6199
2026-03-14 09:15:14.160,-1.0768,-1.0952,9.2971
2026-03-14 09:15:14.170,-0.6325,-0.7474,9.5897
2026-03-14 09:15:14.180,-0.6382,-0.5754,10.0719
2026-03-14 09:15:14.190,-0.2135,-0.2748,9.9568
2026-03-14 09:15:14.200,-0.1563,-0.2562,9.8324
2026-03-14 09:15:14.210,-0.211,0.1793,10.0914
2026-03-14 09:15:14.220,0.3786,0.5403,10.1338
2026-03-14 09:15:14.230,0.4651,0.6,9.9475
2026-03-14 09:15:14.240,0.5583,0.6138,10.001
2026-03-14 09:15:14.250,0.5676,0.5682,9.7999
2026-03-14 09:15:14.260,0.7652,0.7911,9.9382
2026-03-14 09:15:14.270,0.8762,1.0701,9.8174
2026-03-14 09:15:14.280,1.1705,1.0804,10.2339
2026-03-14 09:15:14.290,0.9968,1.0,10.2245
2026-03-14 09:15:14.300,1.339,0.9785,10.0825
2026-03-14 09:15:14.310,1.5657,0.7396,10.0367
2026-03-14 09:15:14.320,1.2539,0.8566,9.8667
2026-03-14 09:15:14.330,1.405,0.743,9.4795
2026-03-14 09:15:14.340,1.1654,0.6757,9.322
2026-03-14 09:15:14.350,1.5139,0.6744,9.4374
2026-03-14 09:15:14.360,1.1127,0.4281,9.3939
2026-03-14 09:15:14.370,1.0167,0.1098,9.9353
2026-03-14 09:15:14.380,1.1877,-0.1506,9.8826
2026-03-14 09:15:14.390,0.5887,0.1759,9.7281
2026-03-14 09:15:14.400,0.8951,0.0359,9.4584
2026-03-14 09:15:14.410,0.4808,-0.1485,9.4423
2026-03-14 09:15:14.420,0.7345,-0.2611,9.4893
2026-03-14 09:15:14.430,0.5229,0.0656,9.5509
2026-03-14 09:15:14.440,0.5829,0.2492,9.5319
2026-03-14 09:15:14.450,0.4786,0.3174,9.6883
2026-03-14 09:15:14.460,0.233,0.2099,9.9446
2026-03-14 09:15:14.470,-0.2265,-0.0914,9.8372
2026-03-14 09:15:14.480,-0.2692,0.3072,10.2273
2026-03-14 09:15:14.490,-0.1205,0.1457,10.3181
2026-03-14 09:15:14.500,-0.2172,0.2331,10.0585
2026-03-14 09:15:14.510,,0.113,9.7518
2026-03-14 09:15:14.520,-0.4832,0.282,9.9891
2026-03-14 09:15:14.530,-0.5375,0.1021,9.8843
2026-03-14 09:15:14.540,-0.8337,0.0378,10.0634
2026-03-14 09:15:14.550,-0.7818,-0.2493,10.2575
2026-03-14 09:15:14.560,-0.9125,-0.1806,
2026-03-14 09:15:14.570,-1.5932,-0.4213,10.0978
2026-03-14 09:15:14.580,-1.4895,-0.4031,9.9455
2026-03-14 09:15:14.590,-1.567,-0.6998,9.8812
2026-03-14 09:15:14.600,-1.4664,-0.5903,9.8857
2026-03-14 09:15:14.610,-1.8451,-1.0163,9.5121
2026-03-14 09:15:14.620,-1.4122,-1.0975,
2026-03-14 09:15:14.630,-1.627,-1.251,9.4982
2026-03-14 09:15:14.640,-1.4763,-1.1788,9.4066
2026-03-14 09:15:14.650,,-1.6161,9.4846
2026-03-14 09:15:14.660,-1.5706,-1.1958,9.2775
2026-03-14 09:15:14.670,-1.1315,-1.0206,10.1198
2026-03-14 09:15:14.680,-1.0697,-0.7972,9.4174
2026-03-14 09:15:14.690,-0.8252,-0.6541,9.3601
2026-03-14 09:15:14.700,-0.7642,-0.4952,9.513
2026-03-14 09:15:14.710,-0.4212,-0.7065,9.6369
2026-03-14 09:15:14.720,-0.2362,0.138,9.5911
2026-03-14 09:15:14.730,-0.1763,-0.0619,9.5962
2026-03-14 09:15:14.740,0.1424,0.3094,10.3594
2026-03-14 09:15:14.750,0.6268,0.3369,10.2785
2026-03-14 09:15:14.760,0.4742,0.7979,9.9728
2026-03-14 09:15:14.770,0.709,0.8289,9.6872
2026-03-14 09:15:14.780,0.9023,0.775,9.502
2026-03-14 09:15:14.790,1.1519,,9.3664
2026-03-14 09:15:14.800,1.3648,1.0848,9.7597
2026-03-14 09:15:14.810,1.1774,1.0754,9.7995
2026-03-14 09:15:14.820,1.1653,1.0604,9.9343
2026-03-14 09:15:14.830,1.6629,1.043,9.9894
2026-03-14 09:15:14.840,1.3015,0.7997,9.9797
2026-03-14 09:15:14.850,1.2065,0.8785,10.169
2026-03-14 09:15:14.860,1.2221,0.7036,9.4555
2026-03-14 09:15:14.870,0.9685,0.5508,9.6401
2026-03-14 09:15:14.880,1.5421,0.1077,9.1695
2026-03-14 09:15:14.890,1.4432,0.1913,9.6369
2026-03-14 09:15:14.900,0.9721,0.1337,9.4514
2026-03-14 09:15:14.910,1.2777,-0.0814,9.2327
2026-03-14 09:15:14.920,0.9453,0.2356,9.8607
2026-03-14 09:15:14.930,0.8974,-0.219,9.8722
2026-03-14 09:15:14.940,0.6914,-0.168,9.7506
2026-03-14 09:15:14.950,0.5918,0.1291,9.8104
2026-03-14 09:15:14.960,0.6623,-0.1925,9.6471
2026-03-14 09:15:14.970,0.3899,0.0936,9.3575
2026-03-14 09:15:14.980,0.314,-0.0777,9.5771
2026-03-14 09:15:14.990,0.2358,0.2055,9.7258
2026-03-14 09:15:15.000,0.0593,0.3565,10.2425
2026-03-14 09:15:15.010,0.0169,0.3392,10.118
2026-03-14 09:15:15.020,-0.3369,0.52,10.2948
2026-03-14 09:15:15.030,-0.2938,0.0846,10.6676
2026-03-14 09:15:15.040,-0.5512,0.6584,10.0042
2026-03-14 09:15:15.050,-0.3664,0.3051,10.0957
2026-03-14 09:15:15.060,-0.898,0.4659,9.806
2026-03-14 09:15:15.070,-0.8315,-0.3456,9.9609
2026-03-14 09:15:15.080,-1.0669,0.097,9.9194
2026-03-14 09:15:15.090,-1.0573,-0.4561,9.9527
2026-03-14 09:15:15.100,-1.0864,-0.5134,10.1524
2026-03-14 09:15:15.110,-1.1876,-0.4868,10.0927
2026-03-14 09:15:15.120,-1.3367,-0.963,9.9058
2026-03-14 09:15:15.130,-1.6339,-0.9176,9.9397
2026-03-14 09:15:15.140,-1.4281,-0.8506,9.7397
2026-03-14 09:15:15.150,-1.5882,-1.1363,9.5343
2026-03-14 09:15:15.160,-1.4584,-1.0755,9.2681
2026-03-14 09:15:15.170,-1.2379,-1.1994,9.1524
2026-03-14 09:15:15.180,-1.4423,-1.2796,9.5746
2026-03-14 09:15:15.190,-1.3904,-1.0717,9.762
2026-03-14 09:15:15.200,-1.0544,-0.9101,9.9747
2026-03-14 09:15:15.210,-1.2715,-0.8722,9.7823
2026-03-14 09:15:15.220,,-0.4779,10.0676
2026-03-14 09:15:15.230,-0.7744,-0.4694,9.8941
2026-03-14 09:15:15.240,-0.4936,-0.2211,9.2204
2026-03-14 09:15:15.250,-0.0606,-0.1833,9.7297
2026-03-14 09:15:15.260,0.1821,0.0613,9.9902
2026-03-14 09:15:15.270,0.1734,0.4578,9.7999
2026-03-14 09:15:15.280,0.3332,0.8038,9.9482
2026-03-14 09:15:15.290,0.8026,0.8868,10.0732
2026-03-14 09:15:15.300,0.4401,1.0727,10.5347
2026-03-14 09:15:15.310,0.9932,1.1339,10.2139
2026-03-14 09:15:15.320,0.95,0.9298,10.0507
2026-03-14 09:15:15.330,,1.0602,9.8342
2026-03-14 09:15:15.340,1.4769,1.1668,9.7158
2026-03-14 09:15:15.350,1.3894,1.2773,9.7199
2026-03-14 09:15:15.360,1.5025,0.9547,9.5023
2026-03-14 09:15:15.370,1.3714,0.9343,9.8974
2026-03-14 09:15:15.380,1.2818,0.68,9.9602
2026-03-14 09:15:15.390,1.7363,0.855,10.0003
2026-03-14 09:15:15.400,1.2627,0.262,10.2695
2026-03-14 09:15:15.410,1.4874,0.2797,9.8651
2026-03-14 09:15:15.420,1.0705,-0.0134,9.1326
2026-03-14 09:15:15.430,1.254,-0.0259,9.183
2026-03-14 09:15:15.440,0.8592,-0.105,9.1992
2026-03-14 09:15:15.450,1.1229,-0.0004,9.6349
2026-03-14 09:15:15.460,0.6102,-0.1584,9.8684
2026-03-14 09:15:15.470,0.6406,-0.2417,9.9722
2026-03-14 09:15:15.480,0.5384,-0.1764,10.0336
2026-03-14 09:15:15.490,0.7771,0.201,9.8536
2026-03-14 09:15:15.500,0.2879,0.374,9.7102
2026-03-14 09:15:15.510,0.2631,0.1495,9.625
2026-03-14 09:15:15.520,-0.068,0.3464,9.5783
2026-03-14 09:15:15.530,0.0311,0.3214,9.753
2026-03-14 09:15:15.540,-0.0441,0.2924,10.006
2026-03-14 09:15:15.550,-0.3623,0.4174,9.7501
2026-03-14 09:15:15.560,-0.2127,0.5753,10.5694
2026-03-14 09:15:15.570,-0.4804,0.3676,10.5019
2026-03-14 09:15:15.580,-0.6204,0.1147,9.7
2026-03-14 09:15:15.590,-1.0921,-0.12,10.2241
2026-03-14 09:15:15.600,-0.7145,0.1883,9.5367
2026-03-14 09:15:15.610,-1.202,-0.233,9.8912
2026-03-14 09:15:15.620,-1.3653,-0.3096,9.8222
2026-03-14 09:15:15.630,-1.352,-0.4678,9.9265
2026-03-14 09:15:15.640,-1.5953,-0.5419,9.5228
2026-03-14 09:15:15.650,-1.0242,-0.9163,10.1752
2026-03-14 09:15:15.660,-1.3637,-1.0328,9.9847
2026-03-14 09:15:15.670,-1.3726,-0.7451,9.9199
2026-03-14 09:15:15.680,-1.6126,-0.8842,
2026-03-14 09:15:15.690,-1.6019,-1.2937,9.3712
2026-03-14 09:15:15.700,-1.3739,-1.2755,9.1279
2026-03-14 09:15:15.710,-1.5033,-1.1306,9.1082
2026-03-14 09:15:15.720,-1.2749,-1.0539,9.1681
2026-03-14 09:15:15.730,-0.8932,-1.0117,9.5636
2026-03-14 09:15:15.740,,-0.8949,9.7884
2026-03-14 09:15:15.750,-0.5645,-0.4308,10.0412
2026-03-14 09:15:15.760,-0.4205,-0.5768,10.315
2026-03-14 09:15:15.770,-0.2017,-0.3136,9.9116
2026-03-14 09:15:15.780,-0.1539,-0.1172,9.5827
2026-03-14 09:15:15.790,,0.2728,9.6542
2026-03-14 09:15:15.800,0.4923,0.6712,9.6771
2026-03-14 09:15:15.810,0.4683,1.0049,9.7748
2026-03-14 09:15:15.820,0.6713,0.8217,9.8699
2026-03-14 09:15:15.830,0.7637,1.0961,10.4776
2026-03-14 09:15:15.840,0.6908,0.787,10.44
2026-03-14 09:15:15.850,1.1437,1.0335,10.3654
2026-03-14 09:15:15.860,1.0617,1.0872,10.0996
2026-03-14 09:15:15.870,1.535,1.0551,9.6429
2026-03-14 09:15:15.880,1.2897,1.1943,9.7964
2026-03-14 09:15:15.890,1.1507,0.6307,9.3412
2026-03-14 09:15:15.900,1.1586,0.7179,9.8966
2026-03-14 09:15:15.910,1.232,0.3644,9.7966
2026-03-14 09:15:15.920,1.3288,0.4172,10.0156
2026-03-14 09:15:15.930,1.4994,0.1213,10.1645
2026-03-14 09:15:15.940,1.3747,0.2042,9.4382
2026-03-14 09:15:15.950,1.3622,0.1037,9.4684
2026-03-14 09:15:15.960,0.9661,0.0768,9.3713
2026-03-14 09:15:15.970,0.9892,0.3134,9.6361
2026-03-14 09:15:15.980,1.1446,0.0947,9.212
2026-03-14 09:15:15.990,0.9189,0.0395,9.4107
2026-03-14 09:15:16.000,0.574,0.0029,10.1385
2026-03-14 09:15:16.010,0.6194,-0.0571,9.632
2026-03-14 09:15:16.020,0.3673,0.2396,10.097
2026-03-14 09:15:16.030,0.238,0.1515,10.0079
2026-03-14 09:15:16.040,0.0344,0.2268,10.2415
2026-03-14 09:15:16.050,0.2387,0.1122,9.6092
2026-03-14 09:15:16.060,-0.1365,0.3532,9.6427
2026-03-14 09:15:16.070,-0.0024,-0.0105,9.7149
2026-03-14 09:15:16.080,-0.1285,0.4066,9.6836
2026-03-14 09:15:16.090,-0.5068,0.289,10.0207
2026-03-14 09:15:16.100,-0.7332,0.0435,10.1422
2026-03-14 09:15:16.110,-0.6332,0.5027,10.5484
2026-03-14 09:15:16.120,-0.8563,0.0493,10.4579
2026-03-14 09:15:16.130,-0.994,-0.2243,
2026-03-14 09:15:16.140,-1.1364,-0.3036,9.7599
2026-03-14 09:15:16.150,-1.359,-0.2522,10.216
2026-03-14 09:15:16.160,-1.1521,-0.484,9.5189
2026-03-14 09:15:16.170,-1.356,-0.9172,9.5095
2026-03-14 09:15:16.180,-1.3952,-0.979,9.5405
2026-03-14 09:15:16.190,-1.3246,-1.1452,9.6477
2026-03-14 09:15:16.200,-1.5095,-1.2057,9.7733
2026-03-14 09:15:16.210,-1.495,-1.0511,9.5865
2026-03-14 09:15:16.220,-1.3329,-1.3955,9.6574
2026-03-14 09:15:16.230,-1.3924,-1.14,9.8658
2026-03-14 09:15:16.240,-1.2786,-1.4142,9.1708
2026-03-14 09:15:16.250,-1.0974,-0.988,9.1187
2026-03-14 09:15:16.260,-0.8501,-0.9904,9.8374
2026-03-14 09:15:16.270,-0.7667,-0.9653,9.7817
2026-03-14 09:15:16.280,-0.7352,-0.5303,10.0569
2026-03-14 09:15:16.290,-0.7566,-0.1681,10.4499
2026-03-14 09:15:16.300,-0.1548,-0.1722,10.1881
2026-03-14 09:15:16.310,-0.0969,0.17,
2026-03-14 09:15:16.320,0.0564,0.0872,10.0763
2026-03-14 09:15:16.330,0.1889,0.3067,9.4373
2026-03-14 09:15:16.340,0.6109,0.8423,9.3528
2026-03-14 09:15:16.350,0.6861,0.6236,9.7772
2026-03-14 09:15:16.360,0.6713,0.8409,10.0049
2026-03-14 09:15:16.370,0.9257,1.0281,10.3742
2026-03-14 09:15:16.380,1.1494,0.9277,10.0188
2026-03-14 09:15:16.390,,0.9465,10.2466
2026-03-14 09:15:16.400,1.4092,1.1886,10.2114
2026-03-14 09:15:16.410,1.1182,0.7941,
2026-03-14 09:15:16.420,1.5027,0.6701,9.4971
2026-03-14 09:15:16.430,1.356,0.5174,9.5576
2026-03-14 09:15:16.440,1.2735,0.6939,9.1982
2026-03-14 09:15:16.450,1.2948,0.4642,9.8306
2026-03-14 09:15:16.460,1.3504,0.2732,9.6835
2026-03-14 09:15:16.470,1.1552,0.1307,9.903
2026-03-14 09:15:16.480,1.2743,0.1136,9.6456
2026-03-14 09:15:16.490,1.2824,-0.382,9.6505
2026-03-14 09:15:16.500,0.8529,0.0699,9.8206
2026-03-14 09:15:16.510,0.9465,-0.2354,9.3259
2026-03-14 09:15:16.520,0.8546,-0.1872,9.3218
2026-03-14 09:15:16.530,0.5534,0.1404,9.6479
2026-03-14 09:15:16.540,0.7848,0.0945,9.7741
2026-03-14 09:15:16.550,0.2404,0.2124,9.7582
2026-03-14 09:15:16.560,0.1774,0.2766,10.0137
2026-03-14 09:15:16.570,0.1997,0.1666,9.7247
2026-03-14 09:15:16.580,-0.0053,0.2058,10.2156
2026-03-14 09:15:16.590,-0.1316,0.4571,10.0951
2026-03-14 09:15:16.600,,0.2643,9.7006
2026-03-14 09:15:16.610,-0.5495,0.1956,9.9957
2026-03-14 09:15:16.620,-0.5341,0.1212,9.8652
2026-03-14 09:15:16.630,-0.4411,0.118,10.3409
2026-03-14 09:15:16.640,-0.5636,-0.0446,10.4104
2026-03-14 09:15:16.650,-0.9719,-0.1291,10.2578
2026-03-14 09:15:16.660,-1.2397,-0.4612,10.2871
2026-03-14 09:15:16.670,-1.1811,-0.1389,10.0043
2026-03-14 09:15:16.680,-1.0413,-0.5618,9.9598
2026-03-14 09:15:16.690,-1.4948,-0.7241,9.5758
2026-03-14 09:15:16.700,-1.5498,-0.6719,9.296
2026-03-14 09:15:16.710,-1.5633,-0.9683,9.2149
2026-03-14 09:15:16.720,-1.4625,-0.9677,9.5312
2026-03-14 09:15:16.730,-1.4194,-0.9472,9.4498
2026-03-14 09:15:16.740,-1.6295,-1.1736,9.6557
2026-03-14 09:15:16.750,-1.5523,-1.3647,9.5044
2026-03-14 09:15:16.760,-1.2782,-1.2354,10.031
2026-03-14 09:15:16.770,-1.3978,-1.0981,9.7164
2026-03-14 09:15:16.780,-0.9853,-1.1257,9.4276
2026-03-14 09:15:16.790,-0.6666,-0.6725,9.5513
2026-03-14 09:15:16.800,-0.6556,-0.739,9.4417
2026-03-14 09:15:16.810,-0.5283,-0.2267,9.7573
2026-03-14 09:15:16.820,-0.1581,-0.1741,10.2329
2026-03-14 09:15:16.830,-0.3543,-0.0392,10.138
2026-03-14 09:15:16.840,0.1992,0.3086,10.0677
2026-03-14 09:15:16.850,0.1237,0.2916,9.952
2026-03-14 09:15:16.860,0.5624,0.5432,10.0189
2026-03-14 09:15:16.870,0.5071,0.6706,10.0612
2026-03-14 09:15:16.880,0.7532,0.6799,10.0489
2026-03-14 09:15:16.890,0.9623,1.1094,9.8987
2026-03-14 09:15:16.900,1.0545,1.3352,9.8575
2026-03-14 09:15:16.910,1.1926,1.2412,10.1639
2026-03-14 09:15:16.920,1.3598,1.1803,10.0141
2026-03-14 09:15:16.930,1.1873,0.8387,10.0899
2026-03-14 09:15:16.940,1.2894,0.8984,10.5186
2026-03-14 09:15:16.950,1.1718,0.4704,9.7285
2026-03-14 09:15:16.960,1.3292,0.6552,9.7266
2026-03-14 09:15:16.970,1.5884,0.296,8.948
2026-03-14 09:15:16.980,1.1185,0.5418,9.5612
2026-03-14 09:15:16.990,1.2821,0.5134,9.354
2026-03-14 09:15:17.000,1.1404,0.0916,9.7026
2026-03-14 09:15:17.010,0.9458,0.0259,9.5355
2026-03-14 09:15:17.020,0.9348,0.0422,9.8523
2026-03-14 09:15:17.030,1.0965,-0.0519,10.0767
2026-03-14 09:15:17.040,0.8997,-0.349,9.7339
2026-03-14 09:15:17.050,0.5199,-0.0987,9.3369
2026-03-14 09:15:17.060,0.4119,-0.1395,9.5219
2026-03-14 09:15:17.070,0.6412,-0.0803,9.3486
2026-03-14 09:15:17.080,0.4846,0.3119,9.5755
2026-03-14 09:15:17.090,-0.0951,0.2394,9.4623
2026-03-14 09:15:17.100,0.1198,0.1657,9.8332
2026-03-14 09:15:17.110,-0.0049,0.1831,10.2479
2026-03-14 09:15:17.120,-0.3026,0.4408,10.2018
2026-03-14 09:15:17.130,-0.4138,0.1048,9.9866
2026-03-14 09:15:17.140,-0.1259,0.548,
2026-03-14 09:15:17.150,-0.6439,0.2276,9.843
2026-03-14 09:15:17.160,-0.6154,0.3519,9.9979
2026-03-14 09:15:17.170,-0.9511,0.1058,10.1113
2026-03-14 09:15:17.180,-1.0809,0.113,10.0323
2026-03-14 09:15:17.190,,-0.0375,10.1381
2026-03-14 09:15:17.200,-1.2452,-0.2633,10.7317
2026-03-14 09:15:17.210,-1.3263,-0.4196,10.084
2026-03-14 09:15:17.220,-1.4592,-0.6013,10.4706
2026-03-14 09:15:17.230,-1.5992,-0.8779,9.8137
2026-03-14 09:15:17.240,-1.5482,-1.1953,9.6665
2026-03-14 09:15:17.250,-1.3694,-1.3159,9.224
2026-03-14 09:15:17.260,-1.2891,-1.0982,9.3535
2026-03-14 09:15:17.270,-1.4287,-1.2041,9.3198
2026-03-14 09:15:17.280,-1.4459,-1.2444,9.5238
2026-03-14 09:15:17.290,-1.0523,-1.2161,9.5536
2026-03-14 09:15:17.300,-1.2662,-1.1353,9.8845
2026-03-14 09:15:17.310,-0.8153,-0.7771,9.9213
2026-03-14 09:15:17.320,-1.0226,-0.9265,9.7751
2026-03-14 09:15:17.330,-0.7734,-0.5718,9.296
2026-03-14 09:15:17.340,-0.2983,-0.3331,9.6746
2026-03-14 09:15:17.350,-0.1932,-0.2115,9.3249
2026-03-14 09:15:17.360,-0.0894,0.127,9.8437
2026-03-14 09:15:17.370,0.207,0.4827,9.8054
2026-03-14 09:15:17.380,0.2446,0.7173,10.4668
2026-03-14 09:15:17.390,0.5921,0.4887,10.2494
2026-03-14 09:15:17.400,0.8311,0.8325,10.523
2026-03-14 09:15:17.410,0.5688,0.8644,10.1294
2026-03-14 09:15:17.420,0.8396,1.08,9.4819
2026-03-14 09:15:17.430,1.2236,1.0069,9.566
2026-03-14 09:15:17.440,1.0396,0.9232,9.638
2026-03-14 09:15:17.450,1.2108,0.8675,9.7943
2026-03-14 09:15:17.460,1.4292,0.8879,10.2216
2026-03-14 09:15:17.470,1.4435,0.9808,10.0362
2026-03-14 09:15:17.480,1.2723,0.5707,10.1395
2026-03-14 09:15:17.490,1.3969,0.5011,9.7953
2026-03-14 09:15:17.500,1.5171,0.4994,9.5976
2026-03-14 09:15:17.510,1.4276,0.7614,9.4257
2026-03-14 09:15:17.520,1.1794,0.2461,9.5038
2026-03-14 09:15:17.530,1.3141,0.3377,9.3583
2026-03-14 09:15:17.540,1.0539,0.0147,9.5225
2026-03-14 09:15:17.550,0.8289,-0.1158,9.9065
2026-03-14 09:15:17.560,0.6835,-0.1454,9.9897
2026-03-14 09:15:17.570,0.755,0.06,9.9769
2026-03-14 09:15:17.580,0.7212,-0.0759,9.722
2026-03-14 09:15:17.590,,0.0862,9.2895
2026-03-14 09:15:17.600,0.3434,0.1176,9.4005
2026-03-14 09:15:17.610,0.4724,0.1507,9.4518
2026-03-14 09:15:17.620,0.1366,0.0414,9.5145
2026-03-14 09:15:17.630,0.1907,0.0866,10.1123
2026-03-14 09:15:17.640,0.1521,-0.001,10.0809
2026-03-14 09:15:17.650,-0.1753,0.3647,9.9259
2026-03-14 09:15:17.660,-0.2903,0.1284,10.1593
2026-03-14 09:15:17.670,-0.503,0.5396,10.2367
2026-03-14 09:15:17.680,-0.5001,0.1108,10.036
2026-03-14 09:15:17.690,-0.7647,0.0685,10.0705
2026-03-14 09:15:17.700,-1.0518,0.098,10.0645
2026-03-14 09:15:17.710,-0.9883,-0.056,9.5281
2026-03-14 09:15:17.720,-1.0875,-0.2353,9.8074
2026-03-14 09:15:17.730,-0.963,-0.5639,9.9683
2026-03-14 09:15:17.740,-1.3655,-0.6278,10.0441
2026-03-14 09:15:17.750,-1.4492,-0.7365,10.0914
2026-03-14 09:15:17.760,-1.5207,-0.7499,9.7294
2026-03-14 09:15:17.770,-1.5562,-0.8017,
2026-03-14 09:15:17.780,-1.5984,-1.1851,9.4137
2026-03-14 09:15:17.790,-1.7577,-1.2861,9.3335
2026-03-14 09:15:17.800,-1.5327,-1.0021,9.3
2026-03-14 09:15:17.810,-1.3461,-1.4619,9.6068
2026-03-14 09:15:17.820,-1.3721,-0.9189,9.3131
2026-03-14 09:15:17.830,-1.0062,-0.816,9.6704
2026-03-14 09:15:17.840,-0.9907,-0.8053,9.9496
2026-03-14 09:15:17.850,-0.6638,-0.7693,9.9386
2026-03-14 09:15:17.860,-0.4112,-0.6769,9.8707
2026-03-14 09:15:17.870,-0.2591,-0.3147,9.7594
2026-03-14 09:15:17.880,-0.3771,-0.1273,9.6359
2026-03-14 09:15:17.890,0.2542,0.3129,9.7467
2026-03-14 09:15:17.900,0.1835,0.27,10.0311
2026-03-14 09:15:17.910,0.355,0.3421,9.67
2026-03-14 09:15:17.920,0.7596,0.6925,10.308
2026-03-14 09:15:17.930,0.7173,0.9017,10.5319
2026-03-14 09:15:17.940,0.779,1.0328,9.7293
2026-03-14 09:15:17.950,1.132,,10.0813
2026-03-14 09:15:17.960,1.2775,1.1683,9.852
2026-03-14 09:15:17.970,1.4322,1.3126,9.6369
2026-03-14 09:15:17.980,1.1567,1.1703,9.6678
2026-03-14 09:15:17.990,1.3773,0.547,9.6665
2026-03-14 09:15:18.000,1.6164,0.8837,9.7658
2026-03-14 09:15:18.010,1.3617,0.6182,10.0044
2026-03-14 09:15:18.020,1.5776,0.3467,9.969
2026-03-14 09:15:18.030,1.193,0.4749,10.1224
2026-03-14 09:15:18.040,1.4397,0.4655,9.4226
2026-03-14 09:15:18.050,1.0573,0.0137,9.5848
2026-03-14 09:15:18.060,1.2967,0.2924,9.375
2026-03-14 09:15:18.070,0.9856,0.0106,9.1203
2026-03-14 09:15:18.080,0.876,0.1301,9.2873
2026-03-14 09:15:18.090,1.0739,-0.0445,9.3736
2026-03-14 09:15:18.100,0.8019,-0.1959,9.6724
2026-03-14 09:15:18.110,0.7062,-0.2865,9.9664
2026-03-14 09:15:18.120,0.4275,-0.1465,9.6638
2026-03-14 09:15:18.130,0.4203,0.2233,9.6031
2026-03-14 09:15:18.140,0.3231,0.0779,9.6875
2026-03-14 09:15:18.150,0.3926,0.3096,9.9958
2026-03-14 09:15:18.160,0.2751,0.2676,9.4537
2026-03-14 09:15:18.170,-0.0708,0.3258,9.5995
2026-03-14 09:15:18.180,-0.2716,0.259,9.9029
2026-03-14 09:15:18.190,-0.6446,0.2657,10.084
2026-03-14 09:15:18.200,-0.5084,0.0992,10.5831
2026-03-14 09:15:18.210,-0.8046,0.3762,
2026-03-14 09:15:18.220,-0.7053,-0.1308,10.0756
2026-03-14 09:15:18.230,-0.973,-0.0641,9.9272
2026-03-14 09:15:18.240,-1.0359,-0.5046,9.8696
2026-03-14 09:15:18.250,-1.194,-0.229,9.3079
2026-03-14 09:15:18.260,-1.5845,-0.6203,9.8824
2026-03-14 09:15:18.270,-1.3962,-0.8901,9.83
2026-03-14 09:15:18.280,-1.3886,-0.4684,9.7371
2026-03-14 09:15:18.290,-1.5158,,10.0992
2026-03-14 09:15:18.300,-1.7864,-1.1146,9.7368
2026-03-14 09:15:18.310,-1.7565,-1.1431,9.8528
2026-03-14 09:15:18.320,-1.4725,-1.0385,10.028
2026-03-14 09:15:18.330,-1.0908,-0.7847,9.207
2026-03-14 09:15:18.340,-1.1148,-1.4176,8.9883
2026-03-14 09:15:18.350,-0.9762,-1.2457,9.4902
2026-03-14 09:15:18.360,-0.8346,-0.8868,9.7373
2026-03-14 09:15:18.370,-0.8945,-0.9102,9.7659
2026-03-14 09:15:18.380,-0.8338,-0.4461,10.0084
2026-03-14 09:15:18.390,-0.5376,-0.6133,9.9691
2026-03-14 09:15:18.400,-0.2503,-0.3001,
2026-03-14 09:15:18.410,-0.1822,-0.204,9.9603
2026-03-14 09:15:18.420,-0.056,0.2619,9.7616
2026-03-14 09:15:18.430,0.3652,0.047,9.6536
2026-03-14 09:15:18.440,0.3135,0.7789,9.6938
2026-03-14 09:15:18.450,0.8959,0.924,9.9642
2026-03-14 09:15:18.460,0.888,0.7345,9.9196
2026-03-14 09:15:18.470,1.0211,0.9852,10.7327
2026-03-14 09:15:18.480,0.9216,0.8691,10.5421
2026-03-14 09:15:18.490,1.162,1.0487,9.8627
2026-03-14 09:15:18.500,1.3634,1.087,10.0225
2026-03-14 09:15:18.510,1.3714,,9.7647
2026-03-14 09:15:18.520,1.1856,0.7121,9.5349
2026-03-14 09:15:18.530,1.4453,0.7892,9.6343
2026-03-14 09:15:18.540,1.3276,0.6722,9.3929
2026-03-14 09:15:18.550,1.5245,0.3434,9.4607
2026-03-14 09:15:18.560,1.2252,0.3393,9.8166
2026-03-14 09:15:18.570,1.1708,0.1609,9.7158
2026-03-14 09:15:18.580,1.0972,-0.0674,9.9828
2026-03-14 09:15:18.590,1.0963,0.0247,9.6075
2026-03-14 09:15:18.600,0.8911,0.1151,9.4371
2026-03-14 09:15:18.610,0.8522,-0.1244,9.4241
2026-03-14 09:15:18.620,0.7122,-0.0593,9.1875
2026-03-14 09:15:18.630,0.5224,-0.4021,9.7913
2026-03-14 09:15:18.640,0.6747,0.0069,10.194
2026-03-14 09:15:18.650,0.3201,0.0234,10.3017
2026-03-14 09:15:18.660,0.1189,0.1373,
2026-03-14 09:15:18.670,0.1044,0.1783,9.8141
2026-03-14 09:15:18.680,0.5639,0.1481,9.9617
2026-03-14 09:15:18.690,0.0181,0.1941,9.8787
2026-03-14 09:15:18.700,-0.1106,0.4231,9.5878
2026-03-14 09:15:18.710,-0.2977,0.4723,9.6113
2026-03-14 09:15:18.720,-0.192,0.2501,9.9303
2026-03-14 09:15:18.730,-0.7483,0.1245,9.7596
2026-03-14 09:15:18.740,-0.6934,0.0935,9.9147
2026-03-14 09:15:18.750,-1.0402,0.1404,10.0735
2026-03-14 09:15:18.760,-0.9793,-0.0684,10.0512
2026-03-14 09:15:18.770,-1.2329,-0.2037,10.2727
2026-03-14 09:15:18.780,-1.2164,-0.5557,9.9379
2026-03-14 09:15:18.790,-1.0651,-0.4408,9.3409
2026-03-14 09:15:18.800,-1.5971,-0.7681,9.6555
2026-03-14 09:15:18.810,-1.3711,-0.8586,9.8773
2026-03-14 09:15:18.820,-1.4288,-0.8082,9.9757
2026-03-14 09:15:18.830,-1.1817,-1.1743,9.6871
2026-03-14 09:15:18.840,-1.2731,-1.1241,10.0089
2026-03-14 09:15:18.850,-1.8178,-0.937,10.0687
2026-03-14 09:15:18.860,-1.721,-1.3059,9.6958
2026-03-14 09:15:18.870,-1.3328,-1.0199,9.3991
2026-03-14 09:15:18.880,-1.0991,-1.2157,8.8833
2026-03-14 09:15:18.890,-1.159,-0.9165,9.1626
2026-03-14 09:15:18.900,-0.962,-0.6969,9.7237
2026-03-14 09:15:18.910,-0.7057,-0.4826,9.696
2026-03-14 09:15:18.920,-0.4546,-0.4662,9.9085
2026-03-14 09:15:18.930,-0.3101,-0.0935,10.2117
2026-03-14 09:15:18.940,,0.029,10.23
2026-03-14 09:15:18.950,0.0024,0.5234,9.733
2026-03-14 09:15:18.960,0.3572,0.4681,10.0819
2026-03-14 09:15:18.970,0.7482,0.7665,9.7638
2026-03-14 09:15:18.980,0.6659,0.7312,9.6532
2026-03-14 09:15:18.990,0.7858,0.841,9.5837
2026-03-14 09:15:19.000,1.0957,1.0073,10.0989
2026-03-14 09:15:19.010,1.0014,1.1166,10.085
2026-03-14 09:15:19.020,1.2411,0.789,10.3189
2026-03-14 09:15:19.030,1.142,1.4118,9.92
2026-03-14 09:15:19.040,1.2243,0.8642,10.226
2026-03-14 09:15:19.050,1.3024,0.7362,9.8327
2026-03-14 09:15:19.060,1.3081,0.8767,9.5454
2026-03-14 09:15:19.070,1.392,0.6664,9.7746
2026-03-14 09:15:19.080,1.5715,0.4993,9.4433
2026-03-14 09:15:19.090,1.153,0.5744,9.554
2026-03-14 09:15:19.100,0.9689,0.2027,9.6315
2026-03-14 09:15:19.110,1.2662,0.117,9.8129
2026-03-14 09:15:19.120,1.3241,-0.0405,9.9491
2026-03-14 09:15:19.130,1.0154,0.2151,9.7162
2026-03-14 09:15:19.140,0.7283,-0.1595,9.2154
2026-03-14 09:15:19.150,0.6381,-0.2253,9.2386
2026-03-14 09:15:19.160,0.7705,0.1352,9.3529
2026-03-14 09:15:19.170,0.6373,-0.1683,9.5607
2026-03-14 09:15:19.180,0.4754,0.2029,9.6651
2026-03-14 09:15:19.190,0.3025,0.0744,9.9611
2026-03-14 09:15:19.200,0.2903,0.2524,10.4746
2026-03-14 09:15:19.210,0.0229,0.099,9.9979
2026-03-14 09:15:19.220,-0.0502,0.3658,10.6177
2026-03-14 09:15:19.230,-0.3421,0.5418,9.6772
2026-03-14 09:15:19.240,-0.3709,0.2883,
2026-03-14 09:15:19.250,-0.5382,0.0809,9.8565
2026-03-14 09:15:19.260,-0.8744,0.1918,10.1006
2026-03-14 09:15:19.270,-0.7563,0.3314,9.8611
2026-03-14 09:15:19.280,-0.9849,-0.0982,10.4599
2026-03-14 09:15:19.290,-0.986,-0.3828,10.38
2026-03-14 09:15:19.300,,-0.1777,10.3508
2026-03-14 09:15:19.310,-1.1376,-0.6709,10.1848
2026-03-14 09:15:19.320,-1.4974,-0.6681,9.6825
2026-03-14 09:15:19.330,-1.6328,-0.7658,10.0734
2026-03-14 09:15:19.340,-1.6423,-0.5958,9.5741
2026-03-14 09:15:19.350,-1.5322,-1.1685,9.4178
2026-03-14 09:15:19.360,-1.6191,-1.0686,9.5526
2026-03-14 09:15:19.370,-1.5531,-0.9222,10.1978
2026-03-14 09:15:19.380,-1.4393,-1.3333,9.9331
2026-03-14 09:15:19.390,-1.4333,-1.1931,10.0507
2026-03-14 09:15:19.400,-1.3885,-1.3229,9.6003
2026-03-14 09:15:19.410,-0.7437,-1.1866,9.7843
2026-03-14 09:15:19.420,-0.9871,-0.6801,9.1234
2026-03-14 09:15:19.430,-0.838,-0.6671,9.5254
2026-03-14 09:15:19.440,-0.5298,-0.5565,9.4138
2026-03-14 09:15:19.450,-0.3888,-0.3609,9.8091
2026-03-14 09:15:19.460,-0.4605,-0.1428,9.8553
2026-03-14 09:15:19.470,-0.1122,0.2837,10.2731
2026-03-14 09:15:19.480,0.1437,0.343,10.2256
2026-03-14 09:15:19.490,0.4851,0.4049,10.17
2026-03-14 09:15:19.500,0.8863,0.4385,10.2565
2026-03-14 09:15:19.510,0.6279,0.9104,10.0099
2026-03-14 09:15:19.520,0.8649,0.7228,9.6341
2026-03-14 09:15:19.530,1.1788,1.0484,9.8589
2026-03-14 09:15:19.540,1.2669,1.0788,10.0776
2026-03-14 09:15:19.550,1.3377,0.855,9.9572
2026-03-14 09:15:19.560,1.1253,0.9731,10.2794
2026-03-14 09:15:19.570,1.4326,0.9687,10.7343
2026-03-14 09:15:19.580,1.3086,0.7573,10.3788
2026-03-14 09:15:19.590,1.3191,0.4684,9.6224
2026-03-14 09:15:19.600,1.0529,0.7097,9.3075
2026-03-14 09:15:19.610,1.3074,0.3432,9.4594
2026-03-14 09:15:19.620,1.2994,0.3701,8.9023
2026-03-14 09:15:19.630,1.2122,0.0325,9.4689
2026-03-14 09:15:19.640,1.1669,-0.0649,9.4437
2026-03-14 09:15:19.650,0.7793,0.175,10.069
2026-03-14 09:15:19.660,0.7749,0.0386,9.539
2026-03-14 09:15:19.670,0.8286,0.029,10.0766
2026-03-14 09:15:19.680,0.5808,0.0493,9.6126
2026-03-14 09:15:19.690,0.7121,0.2575,9.5852
2026-03-14 09:15:19.700,0.5119,-0.063,9.3879
2026-03-14 09:15:19.710,0.4035,0.1108,9.6006
2026-03-14 09:15:19.720,,-0.0009,9.2717
2026-03-14 09:15:19.730,0.0588,0.1642,9.9874
2026-03-14 09:15:19.740,-0.1701,0.3632,10.359
2026-03-14 09:15:19.750,0.0955,0.4567,9.9339
2026-03-14 09:15:19.760,-0.2634,0.292,10.2222
2026-03-14 09:15:19.770,-0.2995,0.3816,9.9603
2026-03-14 09:15:19.780,-0.4884,0.1454,10.0687
2026-03-14 09:15:19.790,-0.5948,0.0133,9.677
2026-03-14 09:15:19.800,-0.8988,0.2083,9.9158
2026-03-14 09:15:19.810,-1.0839,-0.5584,9.8079
2026-03-14 09:15:19.820,-1.0864,-0.3202,9.9856
2026-03-14 09:15:19.830,-1.4502,-0.3171,10.0277
2026-03-14 09:15:19.840,-1.328,-0.3455,10.4835
2026-03-14 09:15:19.850,-1.2933,-0.5403,10.1498
2026-03-14 09:15:19.860,-1.3713,-0.8801,9.6824
2026-03-14 09:15:19.870,-1.1899,-1.1821,9.9162
2026-03-14 09:15:19.880,-1.593,-0.8331,9.6953
2026-03-14 09:15:19.890,-1.4576,-1.2543,9.4486
2026-03-14 09:15:19.900,-1.3963,-1.0898,9.6245
2026-03-14 09:15:19.910,-1.3337,-1.144,9.9046
2026-03-14 09:15:19.920,-1.3067,-1.2663,9.7507
2026-03-14 09:15:19.930,-1.2076,-0.9448,9.6417
2026-03-14 09:15:19.940,-1.3551,-1.241,9.8339
2026-03-14 09:15:19.950,-0.9795,-0.9976,9.8
2026-03-14 09:15:19.960,-0.8393,-0.6278,
2026-03-14 09:15:19.970,-0.5052,,9.5241
2026-03-14 09:15:19.980,-0.4957,-0.2679,9.4969
2026-03-14 09:15:19.990,0.0821,0.211,9.4049
2026-03-14 09:15:20.000,0.097,,10.1573
2026-03-14 09:15:20.010,0.3871,0.6545,10.0987
2026-03-14 09:15:20.020,0.361,0.6898,10.2931
2026-03-14 09:15:20.030,0.547,0.7262,10.237
2026-03-14 09:15:20.040,0.7583,0.6547,10.1205
2026-03-14 09:15:20.050,1.141,0.9252,9.9865
2026-03-14 09:15:20.060,1.073,0.9383,10.1733
2026-03-14 09:15:20.070,1.3295,1.2933,9.7083
2026-03-14 09:15:20.080,1.363,1.4004,9.7342
2026-03-14 09:15:20.090,1.5089,0.9425,9.7106
2026-03-14 09:15:20.100,1.4788,1.1499,10.0822
2026-03-14 09:15:20.110,1.3639,1.0289,10.007
2026-03-14 09:15:20.120,1.5868,0.5128,10.1589
2026-03-14 09:15:20.130,1.6345,0.4866,9.7883
2026-03-14 09:15:20.140,1.3638,0.1253,9.3387
2026-03-14 09:15:20.150,1.1034,0.6305,9.3746
2026-03-14 09:15:20.160,0.8701,0.0361,9.2046
2026-03-14 09:15:20.170,1.0149,0.038,9.2011
2026-03-14 09:15:20.180,0.9975,-0.1109,9.611
2026-03-14 09:15:20.190,1.2771,-0.0466,9.6329
2026-03-14 09:15:20.200,0.9054,0.0424,9.6803
2026-03-14 09:15:20.210,0.5688,-0.3724,9.9554
2026-03-14 09:15:20.220,0.3869,0.0469,10.1759
2026-03-14 09:15:20.230,0.2947,0.2754,9.359
2026-03-14 09:15:20.240,0.5076,0.2278,9.8242
2026-03-14 09:15:20.250,0.1059,0.105,9.7997
2026-03-14 09:15:20.260,0.2976,0.1723,9.5157
2026-03-14 09:15:20.270,0.0359,0.3194,10.0725
2026-03-14 09:15:20.280,-0.1371,0.1673,10.1567
2026-03-14 09:15:20.290,-0.2594,0.3558,10.0052
2026-03-14 09:15:20.300,-0.4127,0.2774,9.9371
2026-03-14 09:15:20.310,-0.5289,0.005,10.2741
2026-03-14 09:15:20.320,-0.7207,0.3144,9.9746
2026-03-14 09:15:20.330,-0.8234,-0.217,
2026-03-14 09:15:20.340,-1.0851,-0.0711,9.4311
2026-03-14 09:15:20.350,-1.2621,-0.288,9.827
2026-03-14 09:15:20.360,-1.1679,-0.5239,9.6823
2026-03-14 09:15:20.370,-1.3201,-0.5378,9.6997
2026-03-14 09:15:20.380,-1.4015,-0.6562,10.0467
2026-03-14 09:15:20.390,-1.3585,-0.8373,10.0933
2026-03-14 09:15:20.400,-1.7004,-0.699,9.6959
2026-03-14 09:15:20.410,-1.6549,-1.1803,9.7243
2026-03-14 09:15:20.420,-1.3558,-1.0978,9.3515
2026-03-14 09:15:20.430,-1.0617,-1.546,9.2244
2026-03-14 09:15:20.440,-1.2491,-1.3056,9.2177
2026-03-14 09:15:20.450,-1.0991,-1.5953,9.6023
2026-03-14 09:15:20.460,-0.9653,-0.8494,9.7931
2026-03-14 09:15:20.470,-1.0465,-0.8462,9.4844
2026-03-14 09:15:20.480,-0.8886,-0.8786,9.8541
2026-03-14 09:15:20.490,-0.7213,-0.5214,9.9827
2026-03-14 09:15:20.500,-0.3857,-0.2518,9.7313
2026-03-14 09:15:20.510,-0.1603,-0.1387,9.4802
2026-03-14 09:15:20.520,-0.1193,0.152,9.376
2026-03-14 09:15:20.530,0.2195,0.3883,9.9081
2026-03-14 09:15:20.540,0.3493,0.371,9.9969
2026-03-14 09:15:20.550,0.5674,0.6206,9.8098
2026-03-14 09:15:20.560,0.6883,0.819,10.3468
2026-03-14 09:15:20.570,0.8158,0.7638,10.3353
2026-03-14 09:15:20.580,1.0047,0.8609,10.0714
2026-03-14 09:15:20.590,,0.8964,9.979
2026-03-14 09:15:20.600,1.2369,1.072,9.9493
2026-03-14 09:15:20.610,1.6286,1.019,10.003
2026-03-14 09:15:20.620,1.3402,0.7605,9.7575
2026-03-14 09:15:20.630,1.4042,0.6752,9.8336
2026-03-14 09:15:20.640,1.3963,0.8289,9.4959
2026-03-14 09:15:20.650,1.3219,0.5041,10.0755
2026-03-14 09:15:20.660,1.3797,0.8629,10.1913
2026-03-14 09:15:20.670,1.4638,0.356,9.8179
2026-03-14 09:15:20.680,1.1026,0.3012,9.7798
2026-03-14 09:15:20.690,0.9485,-0.016,9.4611
2026-03-14 09:15:20.700,1.1231,-0.2196,9.1719
2026-03-14 09:15:20.710,0.8268,0.1691,9.2762
2026-03-14 09:15:20.720,0.7003,0.0581,9.4032
2026-03-14 09:15:20.730,0.83,0.053,9.6349
2026-03-14 09:15:20.740,0.6033,0.2961,9.6933
2026-03-14 09:15:20.750,0.6553,0.2473,9.7802
2026-03-14 09:15:20.760,0.3946,-0.2191,10.1417
2026-03-14 09:15:20.770,0.1445,0.1394,9.9769
2026-03-14 09:15:20.780,0.3586,-0.0,9.3785
2026-03-14 09:15:20.790,0.3528,0.076,9.7267
2026-03-14 09:15:20.800,-0.0504,0.2754,9.8602
2026-03-14 09:15:20.810,-0.2806,0.1877,9.9582
2026-03-14 09:15:20.820,-0.416,0.1789,9.9049
2026-03-14 09:15:20.830,-0.5179,0.2497,10.0928
2026-03-14 09:15:20.840,-0.8987,0.1288,10.3324
2026-03-14 09:15:20.850,-1.0605,,10.2385
2026-03-14 09:15:20.860,-0.7507,0.1643,9.9902
2026-03-14 09:15:20.870,-1.1598,0.1595,10.0813
2026-03-14 09:15:20.880,-1.2386,-0.6561,9.3998
2026-03-14 09:15:20.890,-1.2585,-0.4179,9.4285
2026-03-14 09:15:20.900,-1.2961,-0.6659,9.4944
2026-03-14 09:15:20.910,-1.1631,-0.8692,9.8117
2026-03-14 09:15:20.920,-1.4059,-0.9054,9.9968
2026-03-14 09:15:20.930,-1.6958,-1.2365,10.0991
2026-03-14 09:15:20.940,-1.4035,-1.3576,9.7648
2026-03-14 09:15:20.950,-1.5553,-1.1833,9.8822
2026-03-14 09:15:20.960,-1.5915,-1.4999,9.4488
2026-03-14 09:15:20.970,-1.3886,-1.2948,9.1935
2026-03-14 09:15:20.980,-1.0905,-1.3146,9.1938
2026-03-14 09:15:20.990,-1.2388,-1.0325,9.6745
2026-03-14 09:15:21.000,-0.9547,-0.9737,9.7153
2026-03-14 09:15:21.010,-0.9434,-0.6112,9.8579
2026-03-14 09:15:21.020,-0.6791,-0.622,10.1701
2026-03-14 09:15:21.030,-0.4139,-0.224,10.3711
2026-03-14 09:15:21.040,-0.2216,-0.0262,9.9705
2026-03-14 09:15:21.050,-0.0324,0.1396,9.688
2026-03-14 09:15:21.060,0.4772,0.5266,9.7067
2026-03-14 09:15:21.070,0.3847,0.578,10.1491
2026-03-14 09:15:21.080,0.4755,0.7877,10.0734
2026-03-14 09:15:21.090,0.6782,0.8421,10.2324
2026-03-14 09:15:21.100,0.877,0.9808,9.9999
2026-03-14 09:15:21.110,0.907,0.6486,10.4823
2026-03-14 09:15:21.120,1.1762,1.0188,10.3532
2026-03-14 09:15:21.130,1.101,1.238,10.0593
2026-03-14 09:15:21.140,1.1335,1.116,10.0615
2026-03-14 09:15:21.150,1.0712,0.7953,9.8799
2026-03-14 09:15:21.160,1.3808,0.7069,9.2843
2026-03-14 09:15:21.170,1.6684,0.6016,9.8391
2026-03-14 09:15:21.180,1.3063,0.5073,9.779
2026-03-14 09:15:21.190,1.1367,0.1956,9.8924
2026-03-14 09:15:21.200,1.0056,0.0813,9.718
2026-03-14 09:15:21.210,1.2633,0.0568,9.8319
2026-03-14 09:15:21.220,0.9391,-0.1458,9.7497
2026-03-14 09:15:21.230,1.0639,0.0645,9.7457
2026-03-14 09:15:21.240,0.9775,-0.1246,9.5887
2026-03-14 09:15:21.250,0.859,-0.0385,9.3124
2026-03-14 09:15:21.260,0.7624,0.3354,9.6178
2026-03-14 09:15:21.270,0.5295,0.123,9.3548
2026-03-14 09:15:21.280,,-0.073,9.894
2026-03-14 09:15:21.290,0.5619,0.0103,9.8576
2026-03-14 09:15:21.300,0.3369,0.3823,10.1082
2026-03-14 09:15:21.310,0.1799,0.2368,9.8708
2026-03-14 09:15:21.320,0.2035,0.2572,10.1637
2026-03-14 09:15:21.330,,,9.7044
2026-03-14 09:15:21.340,-0.007,0.1015,9.5446
2026-03-14 09:15:21.350,-0.4022,0.2737,10.0133
2026-03-14 09:15:21.360,-0.5181,0.0923,10.0069
2026-03-14 09:15:21.370,-0.7088,0.0828,10.2321
2026-03-14 09:15:21.380,-0.9318,-0.005,10.3069
2026-03-14 09:15:21.390,-0.8654,-0.1238,10.4912
2026-03-14 09:15:21.400,-0.9169,-0.1938,10.0437
2026-03-14 09:15:21.410,-1.1095,-0.5846,9.7965
2026-03-14 09:15:21.420,-1.2926,-0.5605,9.8246
2026-03-14 09:15:21.430,-1.269,-0.5143,9.9051
2026-03-14 09:15:21.440,-1.5635,-0.8263,10.0855
2026-03-14 09:15:21.450,-1.5071,-0.9147,9.852
2026-03-14 09:15:21.460,-1.4516,-0.7682,9.3283
2026-03-14 09:15:21.470,-1.6112,-1.2335,9.7428
2026-03-14 09:15:21.480,-1.5743,-1.3988,9.8418
2026-03-14 09:15:21.490,-1.4351,-1.3699,9.7321
2026-03-14 09:15:21.500,-1.3793,-1.2371,9.4114
2026-03-14 09:15:21.510,-1.2401,-0.9087,9.3199
2026-03-14 09:15:21.520,-1.267,-0.9547,9.7857
2026-03-14 09:15:21.530,-1.1132,-0.5931,9.1818
2026-03-14 09:15:21.540,-0.5091,-0.7667,9.2001
2026-03-14 09:15:21.550,-0.4681,-0.468,10.0251
2026-03-14 09:15:21.560,-0.2476,-0.1352,9.884
2026-03-14 09:15:21.570,-0.1584,-0.1212,10.3761
2026-03-14 09:15:21.580,-0.0076,0.2421,9.9878
2026-03-14 09:15:21.590,0.4967,0.4893,10.0118
2026-03-14 09:15:21.600,0.2572,0.7205,9.6335
2026-03-14 09:15:21.610,0.6917,0.7818,10.0117
2026-03-14 09:15:21.620,0.9496,0.7554,9.9093
2026-03-14 09:15:21.630,0.8602,1.0951,9.7823
2026-03-14 09:15:21.640,1.2982,0.8329,10.2332
2026-03-14 09:15:21.650,1.3284,1.108,10.5215
2026-03-14 09:15:21.660,1.4105,0.9299,10.3384
2026-03-14 09:15:21.670,1.2896,1.2033,10.255
2026-03-14 09:15:21.680,1.3658,0.8307,9.885
2026-03-14 09:15:21.690,1.3074,0.5146,9.8098
2026-03-14 09:15:21.700,1.5419,0.3626,9.6931
2026-03-14 09:15:21.710,1.1432,0.5296,9.5233
2026-03-14 09:15:21.720,1.3223,0.5298,9.1684
2026-03-14 09:15:21.730,1.4187,0.393,9.7549
2026-03-14 09:15:21.740,1.0062,0.216,9.9266
2026-03-14 09:15:21.750,1.2619,0.093,9.6816
2026-03-14 09:15:21.760,0.7591,-0.2695,9.5176
2026-03-14 09:15:21.770,0.798,0.0481,9.5833
2026-03-14 09:15:21.780,0.6213,-0.0283,9.3973
2026-03-14 09:15:21.790,0.7063,-0.0038,9.3737
2026-03-14 09:15:21.800,0.6037,-0.1127,9.3618
2026-03-14 09:15:21.810,0.2677,0.0468,9.7418
2026-03-14 09:15:21.820,0.3547,0.1454,9.6377
2026-03-14 09:15:21.830,0.1841,0.3501,10.2199
2026-03-14 09:15:21.840,-0.2114,0.2158,10.0919
2026-03-14 09:15:21.850,0.1815,0.2621,10.4088
2026-03-14 09:15:21.860,-0.194,0.467,9.5192
2026-03-14 09:15:21.870,-0.3339,0.2754,9.9119
2026-03-14 09:15:21.880,-0.4688,0.1692,10.0027
2026-03-14 09:15:21.890,-0.8556,0.2473,9.6594
2026-03-14 09:15:21.900,-0.837,0.1636,9.9863
2026-03-14 09:15:21.910,-0.6849,0.0649,10.2226
2026-03-14 09:15:21.920,-1.0186,-0.0671,9.852
2026-03-14 09:15:21.930,-1.1601,-0.4794,10.3332
2026-03-14 09:15:21.940,-1.1897,-0.5488,10.1447
2026-03-14 09:15:21.950,-1.4993,-0.3561,9.9104
2026-03-14 09:15:21.960,-1.5173,-0.7408,9.4863
2026-03-14 09:15:21.970,-1.3685,-1.1954,9.9142
2026-03-14 09:15:21.980,-1.6003,-1.0881,9.4703
2026-03-14 09:15:21.990,-1.4343,-0.9274,9.4195
2026-03-14 09:15:22.000,-1.4385,-1.382,9.8433
2026-03-14 09:15:22.010,-1.5081,-1.2205,10.0052
2026-03-14 09:15:22.020,-1.3568,-1.3916,9.7382
2026-03-14 09:15:22.030,-1.2563,-1.1047,9.7851
2026-03-14 09:15:22.040,-1.3103,-0.9369,9.7435
2026-03-14 09:15:22.050,-1.1652,-0.8581,9.4265
2026-03-14 09:15:22.060,-1.1346,-0.8337,9.3881
2026-03-14 09:15:22.070,-0.9212,-0.5522,9.0611
2026-03-14 09:15:22.080,-0.4621,-0.6255,9.4946
2026-03-14 09:15:22.090,-0.0046,-0.351,10.0838
2026-03-14 09:15:22.100,-0.212,0.0781,10.2843
2026-03-14 09:15:22.110,0.2599,0.0602,10.0374
2026-03-14 09:15:22.120,0.3651,0.4517,10.3973
2026-03-14 09:15:22.130,0.1761,0.8259,10.2268
2026-03-14 09:15:22.140,0.5872,0.8165,9.9518
2026-03-14 09:15:22.150,,0.8472,9.9424
2026-03-14 09:15:22.160,0.9564,0.8912,9.9041
2026-03-14 09:15:22.170,0.9372,,9.7413
2026-03-14 09:15:22.180,1.3195,1.0777,9.8968
2026-03-14 09:15:22.190,1.4258,0.7761,10.2266
2026-03-14 09:15:22.200,1.3698,0.9742,10.2264
2026-03-14 09:15:22.210,1.561,0.6854,9.8301
2026-03-14 09:15:22.220,1.1986,0.3572,9.6716
2026-03-14 09:15:22.230,1.4033,0.384,9.7977
2026-03-14 09:15:22.240,1.3955,0.4917,9.6807
2026-03-14 09:15:22.250,1.28,0.5359,9.5171
2026-03-14 09:15:22.260,1.1882,0.2075,9.3962
2026-03-14 09:15:22.270,1.0654,-0.0747,9.3584
2026-03-14 09:15:22.280,1.0634,0.1319,9.3183
2026-03-14 09:15:22.290,0.9842,0.0055,9.7468
2026-03-14 09:15:22.300,0.9956,-0.0955,9.5459
2026-03-14 09:15:22.310,,-0.001,9.7852
2026-03-14 09:15:22.320,0.7223,-0.3192,9.4182
2026-03-14 09:15:22.330,0.487,0.114,9.432
2026-03-14 09:15:22.340,0.3836,-0.0358,9.5421
2026-03-14 09:15:22.350,0.4872,0.2027,9.7411
2026-03-14 09:15:22.360,-0.0345,0.1335,9.3524
2026-03-14 09:15:22.370,-0.2186,0.3343,10.0768
2026-03-14 09:15:22.380,-0.0798,-0.0111,10.0525
2026-03-14 09:15:22.390,-0.4127,0.3231,10.1845
2026-03-14 09:15:22.400,-0.3651,0.1667,9.8063
2026-03-14 09:15:22.410,-0.4862,0.2464,10.0436
2026-03-14 09:15:22.420,-0.719,0.2541,9.9377
2026-03-14 09:15:22.430,-0.578,0.0706,9.8384
2026-03-14 09:15:22.440,-0.9457,0.0559,9.7366
2026-03-14 09:15:22.450,-0.9248,-0.0949,9.752
2026-03-14 09:15:22.460,-1.0773,-0.0975,10.0263
2026-03-14 09:15:22.470,-1.2436,-0.5176,10.0717
2026-03-14 09:15:22.480,-0.828,-0.8215,10.1538
2026-03-14 09:15:22.490,-1.4548,-0.7482,9.7918
2026-03-14 09:15:22.500,-1.5714,-0.7568,9.2883
2026-03-14 09:15:22.510,-1.6979,-1.3289,9.3356
2026-03-14 09:15:22.520,-1.3965,-1.1759,9.045
2026-03-14 09:15:22.530,-1.5508,-1.1528,9.3773
2026-03-14 09:15:22.540,-1.6484,-1.2247,9.3328
2026-03-14 09:15:22.550,-1.4117,-1.0005,9.4215
2026-03-14 09:15:22.560,-1.3064,-1.0717,9.5942
2026-03-14 09:15:22.570,-1.2397,-0.6379,9.8822
2026-03-14 09:15:22.580,-0.9877,-0.8506,9.5207
2026-03-14 09:15:22.590,-0.6669,-0.565,9.6966
2026-03-14 09:15:22.600,-0.8072,-0.4999,9.7579
2026-03-14 09:15:22.610,-0.1805,-0.1027,9.7298
2026-03-14 09:15:22.620,-0.3795,0.0724,9.5683
2026-03-14 09:15:22.630,-0.0071,0.0723,9.7907
2026-03-14 09:15:22.640,0.267,0.3504,9.8567
2026-03-14 09:15:22.650,0.4963,0.5453,
2026-03-14 09:15:22.660,0.5078,0.7182,10.2642
2026-03-14 09:15:22.670,0.5551,0.9921,10.1468
2026-03-14 09:15:22.680,0.8427,,
2026-03-14 09:15:22.690,1.2184,1.0511,9.7754
2026-03-14 09:15:22.700,1.1506,0.9241,9.8695
2026-03-14 09:15:22.710,0.9888,0.9969,9.6294
2026-03-14 09:15:22.720,1.6917,0.9415,9.5968
2026-03-14 09:15:22.730,1.4793,0.6249,9.4818
2026-03-14 09:15:22.740,1.6146,1.2525,10.0066
2026-03-14 09:15:22.750,1.0848,0.5916,10.1532
2026-03-14 09:15:22.760,1.4878,0.3555,10.0433
2026-03-14 09:15:22.770,1.383,0.1615,9.593
2026-03-14 09:15:22.780,1.2365,0.31,9.7456
2026-03-14 09:15:22.790,0.9277,-0.0618,8.7966
2026-03-14 09:15:22.800,1.0215,0.3868,9.3254
2026-03-14 09:15:22.810,0.9136,0.0241,9.4845
2026-03-14 09:15:22.820,0.7131,0.0792,9.3432
2026-03-14 09:15:22.830,0.7194,-0.1831,9.7292
2026-03-14 09:15:22.840,0.7142,0.0003,10.3314
2026-03-14 09:15:22.850,0.5051,-0.0204,9.7248
2026-03-14 09:15:22.860,0.5203,0.0971,9.5832
2026-03-14 09:15:22.870,0.3656,0.0474,9.474
2026-03-14 09:15:22.880,0.3285,0.2167,9.6147
2026-03-14 09:15:22.890,0.0234,0.5294,9.5381
2026-03-14 09:15:22.900,-0.0475,0.0216,9.6895
2026-03-14 09:15:22.910,-0.1637,0.2599,9.8622
2026-03-14 09:15:22.920,-0.1831,0.3662,10.0946
2026-03-14 09:15:22.930,-0.5168,0.2632,10.1823
2026-03-14 09:15:22.940,-0.7388,0.1206,10.4691
2026-03-14 09:15:22.950,-0.7936,0.0953,9.772
2026-03-14 09:15:22.960,-0.6749,0.0165,9.8631
2026-03-14 09:15:22.970,-0.9677,0.093,9.3915
2026-03-14 09:15:22.980,-1.0827,-0.0646,9.71
2026-03-14 09:15:22.990,-1.2371,-0.0903,9.8272
2026-03-14 09:15:23.000,-1.4287,-0.3296,9.9434
2026-03-14 09:15:23.010,-1.3173,-0.7265,9.9361
2026-03-14 09:15:23.020,-1.8045,-0.9567,9.6925
2026-03-14 09:15:23.030,-1.552,,10.3394
2026-03-14 09:15:23.040,-1.3406,-1.3033,9.916
2026-03-14 09:15:23.050,-1.5964,-1.1682,9.6187
2026-03-14 09:15:23.060,-1.3514,-1.1122,9.5354
2026-03-14 09:15:23.070,-1.3272,-0.9679,9.4272
2026-03-14 09:15:23.080,-1.6507,-1.1523,9.5364
2026-03-14 09:15:23.090,-1.1572,-0.9734,9.5592
2026-03-14 09:15:23.100,-1.0722,-0.6419,9.575
2026-03-14 09:15:23.110,-0.7685,-0.6987,9.7681
2026-03-14 09:15:23.120,-0.6452,-0.7789,10.0273
2026-03-14 09:15:23.130,-0.4265,-0.2064,9.8575
2026-03-14 09:15:23.140,-0.2279,-0.3914,9.7495
2026-03-14 09:15:23.150,0.1368,0.3314,9.8897
2026-03-14 09:15:23.160,0.3456,0.2411,9.3921
2026-03-14 09:15:23.170,0.47,0.2541,9.6926
2026-03-14 09:15:23.180,0.4591,0.7357,9.9601
2026-03-14 09:15:23.190,0.5492,0.8889,10.1254
2026-03-14 09:15:23.200,0.8847,0.9409,10.1855
2026-03-14 09:15:23.210,0.9634,0.948,10.4383
2026-03-14 09:15:23.220,1.2545,0.536,10.0959
2026-03-14 09:15:23.230,1.1276,0.7933,9.8238
2026-03-14 09:15:23.240,1.2304,0.8628,9.6421
2026-03-14 09:15:23.250,1.3569,0.8976,9.0726
2026-03-14 09:15:23.260,1.4935,0.7592,9.5646
2026-03-14 09:15:23.270,1.4029,0.6337,9.8791
2026-03-14 09:15:23.280,1.1366,0.5527,9.3905
2026-03-14 09:15:23.290,1.222,0.3156,9.9059
2026-03-14 09:15:23.300,1.379,0.4623,9.9112
2026-03-14 09:15:23.310,1.2929,0.1577,9.7585
2026-03-14 09:15:23.320,1.0757,,9.5063
2026-03-14 09:15:23.330,0.921,0.0579,9.5873
2026-03-14 09:15:23.340,0.9935,-0.0697,9.3296
2026-03-14 09:15:23.350,0.8689,-0.145,9.384
2026-03-14 09:15:23.360,0.4732,0.0127,9.3154
2026-03-14 09:15:23.370,0.4516,-0.2348,9.4556
2026-03-14 09:15:23.380,0.7303,0.1311,9.94
2026-03-14 09:15:23.390,0.5058,-0.0502,10.1173
2026-03-14 09:15:23.400,0.5144,-0.2248,9.7746
2026-03-14 09:15:23.410,0.2951,-0.0868,9.7694
2026-03-14 09:15:23.420,0.0795,0.3111,9.533
2026-03-14 09:15:23.430,0.0419,0.1917,9.4888
2026-03-14 09:15:23.440,-0.1132,0.1909,9.9029
2026-03-14 09:15:23.450,-0.4493,0.2562,9.7282
2026-03-14 09:15:23.460,-0.3133,0.0776,9.7489
2026-03-14 09:15:23.470,-0.9602,0.3358,10.3022
2026-03-14 09:15:23.480,-0.6559,0.058,10.1929
2026-03-14 09:15:23.490,-0.8489,0.0127,10.4778
2026-03-14 09:15:23.500,-1.0061,0.0106,10.3041
2026-03-14 09:15:23.510,-0.8088,-0.1656,9.9884
2026-03-14 09:15:23.520,-1.1991,-0.3141,9.7169
2026-03-14 09:15:23.530,-1.4781,-0.6981,9.64
2026-03-14 09:15:23.540,-1.4299,-0.7691,9.9936
2026-03-14 09:15:23.550,-1.219,-0.6125,9.8417
2026-03-14 09:15:23.560,-1.3331,-0.8473,9.9691
2026-03-14 09:15:23.570,-1.6535,-0.9403,9.8548
2026-03-14 09:15:23.580,-1.4597,-1.4638,9.6616
2026-03-14 09:15:23.590,-1.4201,-1.3777,9.4978
2026-03-14 09:15:23.600,-1.3255,-1.3985,9.3655
2026-03-14 09:15:23.610,-1.3081,-1.3323,9.3994
2026-03-14 09:15:23.620,-1.349,-0.955,8.8437
2026-03-14 09:15:23.630,-1.0225,-1.049,9.7848
2026-03-14 09:15:23.640,-0.6225,-0.6874,9.7008
2026-03-14 09:15:23.650,-0.4146,-0.7219,9.7496
2026-03-14 09:15:23.660,-0.2651,-0.6192,9.94
2026-03-14 09:15:23.670,-0.3392,-0.0662,10.409
2026-03-14 09:15:23.680,0.0588,0.2067,9.9103
2026-03-14 09:15:23.690,0.1771,0.2724,9.5997
2026-03-14 09:15:23.700,0.2445,0.6321,9.8804
2026-03-14 09:15:23.710,0.5083,0.9034,9.8538
2026-03-14 09:15:23.720,0.462,0.8841,9.9648
2026-03-14 09:15:23.730,0.9902,1.0589,10.3482
2026-03-14 09:15:23.740,0.7285,1.1369,9.8601
2026-03-14 09:15:23.750,1.162,0.8113,10.0871
2026-03-14 09:15:23.760,1.3649,0.8593,10.6248
2026-03-14 09:15:23.770,1.5423,0.8048,10.1801
2026-03-14 09:15:23.780,1.4498,1.0287,
2026-03-14 09:15:23.790,1.5392,0.8074,9.1095
2026-03-14 09:15:23.800,1.4398,0.689,9.7448
2026-03-14 09:15:23.810,1.3321,0.6376,9.4647
2026-03-14 09:15:23.820,1.3075,0.5398,9.6805
2026-03-14 09:15:23.830,1.2262,0.065,9.8369
2026-03-14 09:15:23.840,1.1013,0.5044,9.6729
2026-03-14 09:15:23.850,0.977,0.1187,
2026-03-14 09:15:23.860,0.9927,0.1564,9.2873
2026-03-14 09:15:23.870,0.9786,-0.2801,9.6394
2026-03-14 09:15:23.880,1.1886,-0.0005,9.5563
2026-03-14 09:15:23.890,1.0265,-0.2709,9.1927
2026-03-14 09:15:23.900,0.478,-0.1353,9.5833
2026-03-14 09:15:23.910,0.7475,-0.0201,9.576
2026-03-14 09:15:23.920,0.6253,0.1902,10.1041
2026-03-14 09:15:23.930,0.537,0.0918,9.8927
2026-03-14 09:15:23.940,0.1769,0.2995,9.6705
2026-03-14 09:15:23.950,0.037,0.2632,10.2166
2026-03-14 09:15:23.960,0.05,0.0646,9.9457
2026-03-14 09:15:23.970,-0.1903,0.485,9.482
2026-03-14 09:15:23.980,-0.5016,0.2803,9.8119
2026-03-14 09:15:23.990,-0.6541,0.1599,10.2503
2026-03-14 09:15:24.000,-0.7903,0.1611,9.8464
2026-03-14 09:15:24.010,-0.39,0.0365,10.4802
2026-03-14 09:15:24.020,-1.0196,0.2489,10.4829
2026-03-14 09:15:24.030,-0.9003,-0.2088,10.2416
2026-03-14 09:15:24.040,-1.2956,-0.3928,9.7553
2026-03-14 09:15:24.050,-1.1617,-0.4037,9.7169
2026-03-14 09:15:24.060,-1.5172,-0.5816,9.698
2026-03-14 09:15:24.070,-1.2558,-0.7614,9.8214
2026-03-14 09:15:24.080,-1.2205,-1.0572,10.2802
2026-03-14 09:15:24.090,-1.4783,-1.2048,9.7822
2026-03-14 09:15:24.100,-1.4481,-1.1451,9.7144
2026-03-14 09:15:24.110,-1.4089,-1.2609,9.7466
2026-03-14 09:15:24.120,-1.3935,-1.5821,9.812
2026-03-14 09:15:24.130,-1.5504,-1.1485,9.5017
2026-03-14 09:15:24.140,-1.1733,-1.2044,9.7699
2026-03-14 09:15:24.150,-1.174,-0.9668,9.4619
2026-03-14 09:15:24.160,-1.2016,-0.8637,9.4372
2026-03-14 09:15:24.170,-0.8738,-0.8308,9.6871
2026-03-14 09:15:24.180,-0.7305,-0.3445,9.6473
2026-03-14 09:15:24.190,-0.4141,-0.2669,9.6752
2026-03-14 09:15:24.200,0.0859,-0.2045,10.2724
2026-03-14 09:15:24.210,-0.0417,0.3312,10.0056
2026-03-14 09:15:24.220,0.1333,0.5824,10.3156
2026-03-14 09:15:24.230,0.4401,0.8014,9.6456
2026-03-14 09:15:24.240,0.4904,0.5883,9.5841
2026-03-14 09:15:24.250,0.7831,1.0193,9.4553
2026-03-14 09:15:24.260,0.7265,1.1178,9.8976
2026-03-14 09:15:24.270,0.824,,9.9095
2026-03-14 09:15:24.280,1.0127,0.8543,9.9451
2026-03-14 09:15:24.290,1.468,0.9366,10.2463
2026-03-14 09:15:24.300,1.3834,1.0904,10.2513
2026-03-14 09:15:24.310,1.279,0.8379,10.1198
2026-03-14 09:15:24.320,1.489,0.6593,10.1088
2026-03-14 09:15:24.330,1.2111,0.6426,9.5636
2026-03-14 09:15:24.340,1.2381,0.7713,9.4387
2026-03-14 09:15:24.350,1.0992,0.4221,9.1333
2026-03-14 09:15:24.360,1.2969,0.302,9.5086
2026-03-14 09:15:24.370,1.3375,0.0986,10.1748
2026-03-14 09:15:24.380,1.1571,-0.2482,9.998
2026-03-14 09:15:24.390,1.1579,-0.1224,9.4971
2026-03-14 09:15:24.400,0.965,-0.0261,9.8501
2026-03-14 09:15:24.410,0.6203,-0.1174,9.543
2026-03-14 09:15:24.420,0.6673,0.1044,9.3716
2026-03-14 09:15:24.430,0.5701,0.0381,9.0785
2026-03-14 09:15:24.440,0.3674,0.0624,9.8264
2026-03-14 09:15:24.450,0.3208,0.1179,9.6256
2026-03-14 09:15:24.460,0.2881,0.2912,9.6745
2026-03-14 09:15:24.470,0.0616,-0.0939,9.8988
2026-03-14 09:15:24.480,-0.2235,0.579,10.2313
2026-03-14 09:15:24.490,-0.23,0.2038,10.1966
2026-03-14 09:15:24.500,-0.3403,0.2564,10.1288
2026-03-14 09:15:24.510,-0.5237,0.2651,10.2221
2026-03-14 09:15:24.520,-0.4584,-0.0784,9.6468
2026-03-14 09:15:24.530,-0.7942,0.1263,9.7821
2026-03-14 09:15:24.540,-0.7453,-0.1195,9.8414
2026-03-14 09:15:24.550,-1.0629,0.1625,10.2444
2026-03-14 09:15:24.560,-1.0399,-0.3787,10.2202
2026-03-14 09:15:24.570,-1.3239,-0.3925,10.0254
2026-03-14 09:15:24.580,-1.2416,-0.6105,9.7634
2026-03-14 09:15:24.590,-1.4174,-0.6481,9.8783
2026-03-14 09:15:24.600,-1.293,-0.9904,9.625
2026-03-14 09:15:24.610,-1.6032,-1.2085,9.6052
2026-03-14 09:15:24.620,-1.5604,-1.1857,9.3793
2026-03-14 09:15:24.630,-1.5508,-1.2757,9.7016
2026-03-14 09:15:24.640,-1.6816,-1.3742,9.561
2026-03-14 09:15:24.650,-1.6585,-1.0597,9.8112
2026-03-14 09:15:24.660,-1.5356,-1.1843,10.0423
2026-03-14 09:15:24.670,-1.4238,-0.7848,9.4669
2026-03-14 09:15:24.680,-0.937,-0.7761,9.6235
2026-03-14 09:15:24.690,-0.7362,-0.9142,9.4382
2026-03-14 09:15:24.700,-0.59,-0.6786,9.3645
2026-03-14 09:15:24.710,-0.6869,-0.321,9.8395
2026-03-14 09:15:24.720,-0.0719,-0.2542,9.6534
2026-03-14 09:15:24.730,-0.1408,0.4141,10.2933
2026-03-14 09:15:24.740,0.3613,0.2281,10.0105
2026-03-14 09:15:24.750,0.3642,0.4704,10.2184
2026-03-14 09:15:24.760,0.5707,0.8296,9.8912
2026-03-14 09:15:24.770,0.5252,0.8369,10.2532
2026-03-14 09:15:24.780,0.4585,0.9024,9.8855
2026-03-14 09:15:24.790,1.0773,1.1113,9.9791
2026-03-14 09:15:24.800,0.9953,1.0949,9.7439
2026-03-14 09:15:24.810,1.0343,0.6414,10.0879
2026-03-14 09:15:24.820,1.3023,0.8725,9.8508
2026-03-14 09:15:24.830,1.5626,1.037,10.2192
2026-03-14 09:15:24.840,1.4157,1.0672,9.9493
2026-03-14 09:15:24.850,1.3719,0.7985,10.0037
2026-03-14 09:15:24.860,1.222,0.2984,9.6385
2026-03-14 09:15:24.870,1.5009,0.1154,9.3649
2026-03-14 09:15:24.880,1.2895,0.1856,9.4426
2026-03-14 09:15:24.890,1.2365,0.153,9.4559
2026-03-14 09:15:24.900,1.54,0.1804,9.6744
2026-03-14 09:15:24.910,0.9603,0.0273,9.5511
2026-03-14 09:15:24.920,1.0952,-0.0096,9.5309
2026-03-14 09:15:24.930,0.926,-0.1924,9.6156
2026-03-14 09:15:24.940,0.7677,0.0344,9.884
2026-03-14 09:15:24.950,0.4514,0.1091,9.4812
2026-03-14 09:15:24.960,0.6376,0.162,9.0272
2026-03-14 09:15:24.970,0.4156,0.0372,9.66
2026-03-14 09:15:24.980,0.1899,0.0693,9.429
2026-03-14 09:15:24.990,0.0249,0.2445,9.4844
2026-03-14 09:15:25.000,-0.0136,0.3683,9.9963
2026-03-14 09:15:25.010,-0.0613,0.2183,10.0173
2026-03-14 09:15:25.020,-0.3768,0.082,10.2911
2026-03-14 09:15:25.030,-0.4855,-0.0554,10.1814
2026-03-14 09:15:25.040,-0.4573,0.2926,9.824
2026-03-14 09:15:25.050,-0.6556,0.2919,9.6668
2026-03-14 09:15:25.060,-0.6185,0.1064,10.0386
2026-03-14 09:15:25.070,-0.9391,0.1788,9.5143
2026-03-14 09:15:25.080,-0.4969,-0.3536,9.6803
2026-03-14 09:15:25.090,-1.0645,-0.2453,10.1227
2026-03-14 09:15:25.100,-1.1535,-0.5877,10.0754
2026-03-14 09:15:25.110,-1.7385,-0.9463,9.9758
2026-03-14 09:15:25.120,-1.2694,-0.6574,10.1906
2026-03-14 09:15:25.130,-1.5898,-0.8104,9.8556
2026-03-14 09:15:25.140,-2.0751,-0.6256,9.7488
2026-03-14 09:15:25.150,-1.5725,-1.1594,9.5647
2026-03-14 09:15:25.160,-1.4733,-1.1587,9.217
2026-03-14 09:15:25.170,-1.1355,-1.3761,9.4161
2026-03-14 09:15:25.180,-1.373,-0.954,9.6231
2026-03-14 09:15:25.190,-1.3393,-0.9935,9.4957
2026-03-14 09:15:25.200,-1.2413,-0.8611,9.7629
2026-03-14 09:15:25.210,-0.9173,-0.7264,9.8951
2026-03-14 09:15:25.220,-0.7119,-1.1987,9.6412
2026-03-14 09:15:25.230,-0.7966,-0.4321,9.6454
2026-03-14 09:15:25.240,-0.6492,-0.0479,9.6514
2026-03-14 09:15:25.250,-0.5433,0.0124,9.369
2026-03-14 09:15:25.260,0.0144,0.1866,9.7858
2026-03-14 09:15:25.270,0.3033,0.2238,9.9583
2026-03-14 09:15:25.280,0.4269,0.8089,10.3349
2026-03-14 09:15:25.290,0.829,0.9435,9.8677
2026-03-14 09:15:25.300,0.6375,0.7547,10.6016
2026-03-14 09:15:25.310,1.0562,0.9189,10.3665
2026-03-14 09:15:25.320,1.0305,1.0724,9.8861
2026-03-14 09:15:25.330,1.2367,0.8018,9.655
2026-03-14 09:15:25.340,1.0828,1.2314,9.9568
2026-03-14 09:15:25.350,1.3441,0.9073,9.403
2026-03-14 09:15:25.360,1.0733,0.8727,9.883
2026-03-14 09:15:25.370,1.6748,0.708,10.0832
2026-03-14 09:15:25.380,1.4047,0.6257,10.0686
2026-03-14 09:15:25.390,1.3562,0.51,10.0672
2026-03-14 09:15:25.400,1.2487,0.5867,9.5529
2026-03-14 09:15:25.410,1.2587,0.1689,9.4227
2026-03-14 09:15:25.420,1.187,0.2343,9.3478
2026-03-14 09:15:25.430,1.1171,0.1695,9.5974
2026-03-14 09:15:25.440,0.9575,-0.045,9.2972
2026-03-14 09:15:25.450,1.1893,-0.1544,9.503
2026-03-14 09:15:25.460,0.8719,-0.1825,9.9413
2026-03-14 09:15:25.470,0.736,0.1226,9.785
2026-03-14 09:15:25.480,0.5924,0.0354,9.5337
2026-03-14 09:15:25.490,0.7721,-0.0143,10.0154
2026-03-14 09:15:25.500,0.3692,0.2387,9.6563
2026-03-14 09:15:25.510,0.3392,0.1434,9.8442
2026-03-14 09:15:25.520,0.2118,0.3085,9.6245
2026-03-14 09:15:25.530,0.054,0.3824,9.6808
2026-03-14 09:15:25.540,-0.2207,0.444,9.8398
2026-03-14 09:15:25.550,-0.2598,0.2093,10.1096
2026-03-14 09:15:25.560,-0.4236,0.3967,9.9841
2026-03-14 09:15:25.570,-0.6378,0.2647,10.458
2026-03-14 09:15:25.580,-0.7673,0.1003,10.0043
2026-03-14 09:15:25.590,-0.7921,0.2177,10.0663
2026-03-14 09:15:25.600,-0.9593,-0.2384,9.524
2026-03-14 09:15:25.610,-1.0981,,9.9254
2026-03-14 09:15:25.620,-1.0846,-0.1924,9.4217
2026-03-14 09:15:25.630,-1.2544,-0.4591,9.841
2026-03-14 09:15:25.640,-1.5628,-0.6384,9.9646
2026-03-14 09:15:25.650,-1.6241,-0.8906,10.1507
2026-03-14 09:15:25.660,-1.4454,-0.8899,10.2783
2026-03-14 09:15:25.670,-1.5934,-1.0859,10.0425
2026-03-14 09:15:25.680,-1.3602,-1.1033,9.6433
2026-03-14 09:15:25.690,-1.6445,-1.288,9.6928
2026-03-14 09:15:25.700,-1.3534,-1.2141,9.4865
2026-03-14 09:15:25.710,-1.2162,-1.2576,9.6333
2026-03-14 09:15:25.720,-1.4313,-1.052,9.4527
2026-03-14 09:15:25.730,-1.0382,-1.043,9.8915
2026-03-14 09:15:25.740,-0.6765,-0.8395,9.6101
2026-03-14 09:15:25.750,-0.8236,-0.6801,9.5877
2026-03-14 09:15:25.760,-0.4795,-0.3958,9.4983
2026-03-14 09:15:25.770,-0.4588,-0.1846,9.9413
2026-03-14 09:15:25.780,-0.3334,-0.4385,9.4944
2026-03-14 09:15:25.790,-0.0673,0.1037,9.6872
2026-03-14 09:15:25.800,0.2991,0.5114,9.4904
2026-03-14 09:15:25.810,0.4769,0.577,9.7446
2026-03-14 09:15:25.820,0.7019,0.667,10.0717
2026-03-14 09:15:25.830,,0.7981,9.835
2026-03-14 09:15:25.840,0.9699,0.9632,10.3262
2026-03-14 09:15:25.850,1.0161,1.1633,10.2781
2026-03-14 09:15:25.860,1.1602,1.1801,10.2292
2026-03-14 09:15:25.870,1.3006,0.8901,9.7498
2026-03-14 09:15:25.880,1.2436,0.922,9.7004
2026-03-14 09:15:25.890,,0.8136,9.5818
2026-03-14 09:15:25.900,1.237,0.7114,9.7941
2026-03-14 09:15:25.910,1.2173,0.5074,9.9487
2026-03-14 09:15:25.920,1.4405,0.4903,10.1141
2026-03-14 09:15:25.930,1.0517,0.2472,9.9267
2026-03-14 09:15:25.940,1.1352,0.2998,9.7457
2026-03-14 09:15:25.950,0.8898,0.2031,9.9584
2026-03-14 09:15:25.960,0.9659,0.0437,9.7025
2026-03-14 09:15:25.970,0.9771,-0.1595,8.96
2026-03-14 09:15:25.980,0.9354,-0.0661,9.5427
2026-03-14 09:15:25.990,0.6521,0.1387,9.1306
2026-03-14 09:15:26.000,0.6479,0.0092,10.0357
2026-03-14 09:15:26.010,0.319,-0.1269,9.472
2026-03-14 09:15:26.020,0.75,0.2226,9.7987
2026-03-14 09:15:26.030,0.5423,0.5171,9.7187
2026-03-14 09:15:26.040,0.2306,0.2523,9.8027
2026-03-14 09:15:26.050,0.0702,0.4556,9.8249
2026-03-14 09:15:26.060,0.0647,0.3246,9.7968
2026-03-14 09:15:26.070,-0.143,0.0126,9.9832
2026-03-14 09:15:26.080,-0.2485,0.2525,9.8808
2026-03-14 09:15:26.090,-0.6721,0.4391,10.1763
2026-03-14 09:15:26.100,-0.6935,0.195,10.0922
2026-03-14 09:15:26.110,-0.792,0.421,10.4795
2026-03-14 09:15:26.120,-0.887,-0.0566,10.653
2026-03-14 09:15:26.130,-1.1223,-0.1667,10.025
2026-03-14 09:15:26.140,-1.2224,0.024,9.7776
2026-03-14 09:15:26.150,-1.4384,-0.3461,9.667
2026-03-14 09:15:26.160,,-0.7311,9.5617
2026-03-14 09:15:26.170,-1.3983,-0.7586,9.4125
2026-03-14 09:15:26.180,-1.4778,-1.0957,9.6526
2026-03-14 09:15:26.190,-1.2643,-1.0639,10.0064
2026-03-14 09:15:26.200,-1.2655,-1.0753,9.9559
2026-03-14 09:15:26.210,-1.5386,-0.8784,9.9055
2026-03-14 09:15:26.220,-1.6374,-1.3474,9.663
2026-03-14 09:15:26.230,-1.5352,-1.3439,9.3844
2026-03-14 09:15:26.240,-1.3214,-1.285,9.4142
2026-03-14 09:15:26.250,-1.198,-1.3132,9.2805
2026-03-14 09:15:26.260,-0.988,-1.085,9.6027
2026-03-14 09:15:26.270,-0.9193,-0.9957,9.6736
2026-03-14 09:15:26.280,-0.5278,-0.8307,9.868
2026-03-14 09:15:26.290,-0.2969,,10.0989
2026-03-14 09:15:26.300,-0.3291,-0.1078,10.1792
